time,gFx,gFy,gFz,ax,ay,az,wx,wy,wz,P
0.015,0.30,0.83,0.29,-0.31,-0.05,-2.68,0.59,-0.31,0.07,0.00
0.032,0.30,0.83,0.29,-0.31,-0.05,-2.68,1.15,-0.59,0.25,0.00
0.033,0.30,0.83,0.29,0.46,-1.12,1.51,1.15,-0.59,0.25,0.00
0.082,0.12,0.75,1.07,0.46,-1.12,1.51,1.15,-0.59,0.25,0.00
0.098,0.12,0.75,1.07,0.46,-1.12,1.51,-2.52,1.56,-0.16,0.00
0.1,0.12,0.75,1.07,-1.32,-0.04,3.06,-2.52,1.56,-0.16,0.00
0.148,0.03,0.72,0.67,-1.32,-0.04,3.06,-2.52,1.56,-0.16,0.00
0.176,0.03,0.72,0.67,-1.32,-0.04,3.06,-0.99,0.76,-0.44,0.00
0.178,0.03,0.72,0.67,-1.33,-0.07,-0.00,-0.99,0.76,-0.44,0.00
0.213,0.12,0.65,0.53,-1.33,-0.07,-0.00,-0.99,0.76,-0.44,0.00
0.23,0.12,0.65,0.53,-1.33,-0.07,-0.00,0.11,0.16,-0.57,0.00
0.231,0.12,0.65,0.53,-0.06,-0.89,-1.29,0.11,0.16,-0.57,0.00
0.279,0.09,0.71,0.87,-0.06,-0.89,-1.29,0.11,0.16,-0.57,0.00
0.296,0.09,0.71,0.87,-0.06,-0.89,-1.29,-0.88,0.53,-0.03,0.00
0.297,0.09,0.71,0.87,-0.69,-0.11,2.43,-0.88,0.53,-0.03,0.00
0.346,0.18,0.64,0.69,-0.69,-0.11,2.43,-0.88,0.53,-0.03,0.00
0.366,0.18,0.64,0.69,-0.69,-0.11,2.43,-0.90,0.40,0.33,0.00
0.367,0.18,0.64,0.69,0.79,-0.19,-0.61,-0.90,0.40,0.33,0.00
0.412,-0.05,0.70,0.56,0.79,-0.19,-0.61,-0.90,0.40,0.33,0.00
0.428,-0.05,0.70,0.56,0.79,-0.19,-0.61,0.49,-0.02,-0.80,0.00
0.43,-0.05,0.70,0.56,-1.23,0.22,-1.68,0.49,-0.02,-0.80,0.00
0.477,0.25,0.48,0.87,-1.23,0.22,-1.68,0.49,-0.02,-0.80,0.00
0.494,0.25,0.48,0.87,-1.23,0.22,-1.68,-0.55,-0.02,0.50,0.00
0.495,0.25,0.48,0.87,1.73,-1.87,1.36,-0.55,-0.02,0.50,0.00
0.543,0.58,0.19,1.51,1.73,-1.87,1.36,-0.55,-0.02,0.50,0.00
0.564,0.58,0.19,1.51,1.73,-1.87,1.36,-3.73,-0.03,4.10,0.00
0.566,0.58,0.19,1.51,2.67,-2.91,6.59,-3.73,-0.03,4.10,0.00
0.609,-0.22,0.19,1.28,2.67,-2.91,6.59,-3.73,-0.03,4.10,0.00
0.626,-0.22,0.19,1.28,2.67,-2.91,6.59,-2.32,2.10,-0.71,0.00
0.628,-0.22,0.19,1.28,-3.55,-0.57,3.11,-2.32,2.10,-0.71,0.00
0.675,0.72,0.02,0.32,-3.55,-0.57,3.11,-2.32,2.10,-0.71,0.00
0.692,0.72,0.02,0.32,-3.55,-0.57,3.11,-0.51,-0.94,2.36,0.00
0.694,0.72,0.02,0.32,5.55,-1.77,-6.35,-0.51,-0.94,2.36,0.00
0.741,0.13,0.45,0.93,5.55,-1.77,-6.35,-0.51,-0.94,2.36,0.00
0.761,0.13,0.45,0.93,5.55,-1.77,-6.35,0.91,-0.49,0.14,0.00
0.762,0.13,0.45,0.93,-2.78,2.19,0.96,0.91,-0.49,0.14,0.00
0.807,-0.28,0.78,0.87,-2.78,2.19,0.96,0.91,-0.49,0.14,0.00
0.824,-0.28,0.78,0.87,-2.78,2.19,0.96,2.26,1.15,-4.52,0.00
0.825,-0.28,0.78,0.87,-4.18,4.02,-0.44,2.26,1.15,-4.52,0.00
0.873,0.26,0.65,0.43,-4.18,4.02,-0.44,2.26,1.15,-4.52,0.00
0.89,0.26,0.65,0.43,-4.18,4.02,-0.44,2.68,-0.59,-1.91,0.00
0.892,0.26,0.65,0.43,2.05,0.94,-3.88,2.68,-0.59,-1.91,0.00
0.939,0.05,0.88,0.05,2.05,0.94,-3.88,2.68,-0.59,-1.91,0.00
0.959,0.05,0.88,0.05,2.05,0.94,-3.88,5.05,-1.95,-1.31,0.00
0.961,0.05,0.88,0.05,-0.28,0.83,-3.35,5.05,-1.95,-1.31,0.00
1.006,-0.00,0.90,0.61,-0.28,0.83,-3.35,5.05,-1.95,-1.31,0.00
1.022,-0.00,0.90,0.61,-0.28,0.83,-3.35,0.91,-0.36,-0.92,0.00
1.024,-0.00,0.90,0.61,-0.97,0.38,1.06,0.91,-0.36,-0.92,0.00
1.071,-0.12,0.87,0.65,-0.97,0.38,1.06,0.91,-0.36,-0.92,0.00
1.088,-0.12,0.87,0.65,-0.97,0.38,1.06,-0.44,0.20,-1.22,0.00
1.09,-0.12,0.87,0.65,-1.14,0.18,1.14,-0.44,0.20,-1.22,0.00
1.137,-0.00,0.90,0.30,-1.14,0.18,1.14,-0.44,0.20,-1.22,0.00
1.168,-0.00,0.90,0.30,-1.14,0.18,1.14,0.83,-0.17,-0.26,0.00
1.17,-0.00,0.90,0.30,0.46,0.58,-2.30,0.83,-0.17,-0.26,0.00
1.204,0.24,0.81,0.52,0.46,0.58,-2.30,0.83,-0.17,-0.26,0.00
1.22,0.24,0.81,0.52,0.46,0.58,-2.30,0.19,-0.25,1.36,0.00
1.221,0.24,0.81,0.52,2.24,-1.12,1.34,0.19,-0.25,1.36,0.00
1.269,0.24,0.71,0.70,2.24,-1.12,1.34,0.19,-0.25,1.36,0.00
1.286,0.24,0.71,0.70,2.24,-1.12,1.34,-1.71,0.40,1.75,0.00
1.286,0.24,0.71,0.70,1.07,-0.86,1.08,-1.71,0.40,1.75,0.00
1.335,0.09,0.75,0.63,1.07,-0.86,1.08,-1.71,0.40,1.75,0.00
1.355,0.09,0.75,0.63,1.07,-0.86,1.08,-0.49,0.25,0.55,0.00
1.357,0.09,0.75,0.63,-1.04,0.04,0.93,-0.49,0.25,0.55,0.00
1.401,0.10,0.73,0.68,-1.04,0.04,0.93,-0.49,0.25,0.55,0.00
1.418,0.10,0.73,0.68,-1.04,0.04,0.93,-0.46,0.42,-0.11,0.00
1.419,0.10,0.73,0.68,-0.17,-0.23,-0.03,-0.46,0.42,-0.11,0.00
1.467,0.06,0.77,0.62,-0.17,-0.23,-0.03,-0.46,0.42,-0.11,0.00
1.484,0.06,0.77,0.62,-0.17,-0.23,-0.03,0.07,0.13,-0.19,0.00
1.484,0.06,0.77,0.62,-0.58,0.17,-0.33,0.07,0.13,-0.19,0.00
1.533,0.09,0.73,0.58,-0.58,0.17,-0.33,0.07,0.13,-0.19,0.00
1.554,0.09,0.73,0.58,-0.58,0.17,-0.33,0.32,0.05,-0.50,0.00
1.556,0.09,0.73,0.58,0.00,-0.40,-0.57,0.32,0.05,-0.50,0.00
1.599,0.02,0.78,0.61,0.00,-0.40,-0.57,0.32,0.05,-0.50,0.00
1.616,0.02,0.78,0.61,0.00,-0.40,-0.57,0.22,0.07,-0.47,0.00
1.617,0.02,0.78,0.61,-0.68,0.25,-0.19,0.22,0.07,-0.47,0.00
1.665,-0.06,0.82,0.72,-0.68,0.25,-0.19,0.22,0.07,-0.47,0.00
1.682,-0.06,0.82,0.72,-0.68,0.25,-0.19,-0.15,0.32,-0.73,0.00
1.682,-0.06,0.82,0.72,-1.08,0.48,1.41,-0.15,0.32,-0.73,0.00
1.731,-0.03,0.81,0.46,-1.08,0.48,1.41,-0.15,0.32,-0.73,0.00
1.751,-0.03,0.81,0.46,-1.08,0.48,1.41,0.39,0.03,-0.50,0.00
1.753,-0.03,0.81,0.46,-0.10,0.30,-1.68,0.39,0.03,-0.50,0.00
1.797,-0.04,0.83,0.49,-0.10,0.30,-1.68,0.39,0.03,-0.50,0.00
1.814,-0.04,0.83,0.49,-0.10,0.30,-1.68,1.17,-0.23,-0.49,0.00
1.815,-0.04,0.83,0.49,-0.03,0.04,-0.69,1.17,-0.23,-0.49,0.00
1.863,0.04,0.78,0.66,-0.03,0.04,-0.69,1.17,-0.23,-0.49,0.00
1.88,0.04,0.78,0.66,-0.03,0.04,-0.69,-0.43,0.07,0.60,0.00
1.881,0.04,0.78,0.66,0.48,-0.22,0.43,-0.43,0.07,0.60,0.00
1.929,0.04,0.79,0.47,0.48,-0.22,0.43,-0.43,0.07,0.60,0.00
1.95,0.04,0.79,0.47,0.48,-0.22,0.43,0.06,-0.08,0.34,0.00
1.951,0.04,0.79,0.47,0.27,-0.18,-1.13,0.06,-0.08,0.34,0.00
1.996,-0.04,0.83,0.62,0.27,-0.18,-1.13,0.06,-0.08,0.34,0.00
2.012,-0.04,0.83,0.62,0.27,-0.18,-1.13,0.45,-0.12,-0.27,0.00
2.013,-0.04,0.83,0.62,-0.51,-0.08,0.62,0.45,-0.12,-0.27,0.00
2.061,-0.03,0.80,0.65,-0.51,-0.08,0.62,0.45,-0.12,-0.27,0.00
2.078,-0.03,0.80,0.65,-0.51,-0.08,0.62,-0.75,0.24,-0.12,0.00
2.079,-0.03,0.80,0.65,-0.58,0.12,0.92,-0.75,0.24,-0.12,0.00
2.127,-0.06,0.75,0.60,-0.58,0.12,0.92,-0.75,0.24,-0.12,0.00
2.15,-0.06,0.75,0.60,-0.58,0.12,0.92,-0.20,0.08,-0.36,0.00
2.153,-0.06,0.75,0.60,-0.06,-0.29,-0.69,-0.20,0.08,-0.36,0.00
2.198,0.03,0.73,0.50,-0.06,-0.29,-0.69,-0.20,0.08,-0.36,0.00
2.212,0.03,0.73,0.50,-0.06,-0.29,-0.69,0.61,-0.27,0.09,0.00
2.213,0.03,0.73,0.50,0.47,-0.72,-0.92,0.61,-0.27,0.09,0.00
2.259,0.03,0.75,0.87,0.47,-0.72,-0.92,0.61,-0.27,0.09,0.00
2.276,0.03,0.75,0.87,0.47,-0.72,-0.92,-1.24,0.25,0.69,0.00
2.276,0.03,0.75,0.87,0.56,0.45,-0.95,-1.24,0.25,0.69,0.00
2.325,0.01,0.89,0.44,0.56,0.45,-0.95,-1.24,0.25,0.69,0.00
2.345,0.01,0.89,0.44,0.56,0.45,-0.95,1.13,-0.42,-0.16,0.00
2.347,0.01,0.89,0.44,-0.19,0.37,-1.06,1.13,-0.42,-0.16,0.00
2.391,0.02,0.76,0.80,-0.19,0.37,-1.06,1.13,-0.42,-0.16,0.00
2.408,0.02,0.76,0.80,-0.19,0.37,-1.06,-0.80,0.27,0.25,0.00
2.409,0.02,0.76,0.80,-0.00,-0.03,1.53,-0.80,0.27,0.25,0.00
2.457,0.06,0.76,0.41,-0.00,-0.03,1.53,-0.80,0.27,0.25,0.00
2.474,0.06,0.76,0.41,-0.00,-0.03,1.53,1.03,-0.37,0.05,0.00
2.474,0.06,0.76,0.41,0.27,-0.39,-1.91,1.03,-0.37,0.05,0.00
2.523,0.12,0.64,0.86,0.27,-0.39,-1.91,1.03,-0.37,0.05,0.00
2.548,0.12,0.64,0.86,0.27,-0.39,-1.91,-1.42,0.41,0.88,0.00
2.549,0.12,0.64,0.86,0.36,-0.71,0.77,-1.42,0.41,0.88,0.00
2.589,0.12,0.80,0.34,0.36,-0.71,0.77,-1.42,0.41,0.88,0.00
2.606,0.12,0.80,0.34,0.36,-0.71,0.77,0.66,-0.35,0.16,0.00
2.607,0.12,0.80,0.34,0.38,0.45,-3.00,0.66,-0.35,0.16,0.00
2.655,0.05,0.77,0.66,0.38,0.45,-3.00,0.66,-0.35,0.16,0.00
2.672,0.05,0.77,0.66,0.38,0.45,-3.00,0.69,-0.29,-0.07,0.00
2.673,0.05,0.77,0.66,-0.48,-0.36,0.83,0.69,-0.29,-0.07,0.00
2.721,-0.04,0.85,0.89,-0.48,-0.36,0.83,0.69,-0.29,-0.07,0.00
2.741,-0.04,0.85,0.89,-0.48,-0.36,0.83,-1.21,0.61,-0.56,0.00
2.743,-0.04,0.85,0.89,-0.71,1.03,0.56,-1.21,0.61,-0.56,0.00
2.787,0.00,0.83,0.65,-0.71,1.03,0.56,-1.21,0.61,-0.56,0.00
2.804,0.00,0.83,0.65,-0.71,1.03,0.56,0.32,-0.08,-0.36,0.00
2.806,0.00,0.83,0.65,0.42,0.30,-1.06,0.32,-0.08,-0.36,0.00
2.853,0.08,0.71,0.67,0.42,0.30,-1.06,0.32,-0.08,-0.36,0.00
2.87,0.08,0.71,0.67,0.42,0.30,-1.06,0.19,-0.14,0.28,0.00
2.87,0.08,0.71,0.67,0.39,-0.62,0.35,0.19,-0.14,0.28,0.00
2.919,0.08,0.68,0.61,0.39,-0.62,0.35,0.19,-0.14,0.28,0.00
2.939,0.08,0.68,0.61,0.39,-0.62,0.35,-0.17,-0.01,0.51,0.00
2.941,0.08,0.68,0.61,-0.09,-0.76,-0.08,-0.17,-0.01,0.51,0.00
2.985,0.04,0.70,0.61,-0.09,-0.76,-0.08,-0.17,-0.01,0.51,0.00
3.002,0.04,0.70,0.61,-0.09,-0.76,-0.08,-0.22,0.17,0.01,0.00
3.003,0.04,0.70,0.61,-0.39,-0.53,-0.16,-0.22,0.17,0.01,0.00
3.051,0.04,0.76,0.50,-0.39,-0.53,-0.16,-0.22,0.17,0.01,0.00
3.068,0.04,0.76,0.50,-0.39,-0.53,-0.16,0.26,-0.06,-0.12,0.00
3.068,0.04,0.76,0.50,-0.21,0.11,-1.54,0.26,-0.06,-0.12,0.00
3.119,-0.05,0.74,0.90,-0.21,0.11,-1.54,0.26,-0.06,-0.12,0.00
3.137,-0.05,0.74,0.90,-0.21,0.11,-1.54,-0.62,0.37,-0.58,0.00
3.139,-0.05,0.74,0.90,-0.18,-0.33,1.84,-0.62,0.37,-0.58,0.00
3.185,-0.09,0.80,0.57,-0.18,-0.33,1.84,-0.62,0.37,-0.58,0.00
3.2,-0.09,0.80,0.57,-0.18,-0.33,1.84,0.20,0.08,-0.77,0.00
3.2,-0.09,0.80,0.57,-1.00,0.77,-0.94,0.20,0.08,-0.77,0.00
3.249,-0.02,0.73,0.69,-1.00,0.77,-0.94,0.20,0.08,-0.77,0.00
3.266,-0.02,0.73,0.69,-1.00,0.77,-0.94,-0.04,0.00,-0.14,0.00
3.267,-0.02,0.73,0.69,0.47,-0.41,0.25,-0.04,0.00,-0.14,0.00
3.317,0.00,0.73,0.66,0.47,-0.41,0.25,-0.04,0.00,-0.14,0.00
3.34,0.00,0.73,0.66,0.47,-0.41,0.25,-0.20,-0.01,0.21,0.00
3.342,0.00,0.73,0.66,0.55,-0.33,0.03,-0.20,-0.01,0.21,0.00
3.381,0.09,0.70,0.71,0.55,-0.33,0.03,-0.20,-0.01,0.21,0.00
3.399,0.09,0.70,0.71,0.55,-0.33,0.03,-0.38,-0.07,0.81,0.00
3.4,0.09,0.70,0.71,0.96,-0.34,-0.07,-0.38,-0.07,0.81,0.00
3.453,0.12,0.74,0.73,0.96,-0.34,-0.07,-0.38,-0.07,0.81,0.00
3.464,0.12,0.74,0.73,0.96,-0.34,-0.07,-0.14,-0.20,0.84,0.00
3.464,0.12,0.74,0.73,1.27,0.28,0.41,-0.14,-0.20,0.84,0.00
3.536,0.29,0.71,0.67,1.27,0.28,0.41,-0.14,-0.20,0.84,0.00
3.539,0.29,0.71,0.67,1.27,0.28,0.41,0.08,-0.55,1.28,0.00
3.54,0.29,0.71,0.67,1.37,-0.09,0.18,0.08,-0.55,1.28,0.00
3.579,0.16,0.77,0.71,1.37,-0.09,0.18,0.08,-0.55,1.28,0.00
3.596,0.16,0.77,0.71,1.37,-0.09,0.18,0.08,-0.27,0.22,0.00
3.596,0.16,0.77,0.71,-0.57,0.72,-0.48,0.08,-0.27,0.22,0.00
3.65,0.24,0.75,0.67,-0.57,0.72,-0.48,0.08,-0.27,0.22,0.00
3.663,0.24,0.75,0.67,-0.57,0.72,-0.48,0.20,-0.25,-0.07,0.00
3.664,0.24,0.75,0.67,0.32,0.01,0.91,0.20,-0.25,-0.07,0.00
3.736,0.25,0.65,0.65,0.32,0.01,0.91,0.20,-0.25,-0.07,0.00
3.741,0.25,0.65,0.65,0.32,0.01,0.91,-0.48,-0.16,0.72,0.00
3.742,0.25,0.65,0.65,-0.93,-0.05,-0.52,-0.48,-0.16,0.72,0.00
3.777,-0.02,0.63,0.87,-0.93,-0.05,-0.52,-0.48,-0.16,0.72,0.00
3.794,-0.02,0.63,0.87,-0.93,-0.05,-0.52,-0.79,0.63,-1.11,0.00
3.794,-0.02,0.63,0.87,-2.60,-0.29,1.67,-0.79,0.63,-1.11,0.00
3.847,-0.20,0.69,0.68,-2.60,-0.29,1.67,-0.79,0.63,-1.11,0.00
3.86,-0.20,0.69,0.68,-2.60,-0.29,1.67,-0.07,0.56,-2.62,0.00
3.86,-0.20,0.69,0.68,-1.99,0.63,-1.46,-0.07,0.56,-2.62,0.00
3.918,-0.05,0.71,0.69,-1.99,0.63,-1.46,-0.07,0.56,-2.62,0.00
3.936,-0.05,0.71,0.69,-1.99,0.63,-1.46,0.57,-0.06,-1.42,0.00
3.938,-0.05,0.71,0.69,-0.00,0.11,-0.24,0.57,-0.06,-1.42,0.00
3.975,-0.00,0.72,0.53,-0.00,0.11,-0.24,0.57,-0.06,-1.42,0.00
3.992,-0.00,0.72,0.53,-0.00,0.11,-0.24,0.68,-0.29,-0.21,0.00
3.994,-0.00,0.72,0.53,0.43,0.03,-1.62,0.68,-0.29,-0.21,0.00
4.045,-0.09,0.69,0.59,0.43,0.03,-1.62,0.68,-0.29,-0.21,0.00
4.058,-0.09,0.69,0.59,0.43,0.03,-1.62,0.37,-0.12,-0.35,0.00
4.062,-0.09,0.69,0.59,-0.49,-0.87,-0.11,0.37,-0.12,-0.35,0.00
4.107,-0.12,0.60,0.77,-0.49,-0.87,-0.11,0.37,-0.12,-0.35,0.00
4.166,-0.12,0.60,0.77,-0.49,-0.87,-0.11,-0.75,0.24,-0.44,0.00
4.169,-0.12,0.60,0.77,-0.74,-1.10,-1.15,-0.75,0.24,-0.44,0.00
4.184,-0.13,0.70,0.64,-0.74,-1.10,-1.15,-0.75,0.24,-0.44,0.00
4.209,-0.13,0.70,0.64,-0.74,-1.10,-1.15,0.25,0.08,-0.84,0.00
4.217,-0.13,0.70,0.64,-0.01,-0.21,-0.44,0.25,0.08,-0.84,0.00
4.242,0.19,0.77,0.84,-0.01,-0.21,-0.44,0.25,0.08,-0.84,0.00
4.258,0.19,0.77,0.84,-0.01,-0.21,-0.44,-0.24,-0.38,1.79,0.00
4.258,0.19,0.77,0.84,2.00,0.97,-0.18,-0.24,-0.38,1.79,0.00
4.309,0.19,0.84,0.70,2.00,0.97,-0.18,-0.24,-0.38,1.79,0.00
4.328,0.19,0.84,0.70,2.00,0.97,-0.18,0.49,-0.62,1.58,0.00
4.329,0.19,0.84,0.70,1.45,0.37,0.62,0.49,-0.62,1.58,0.00
4.371,0.16,0.76,0.80,1.45,0.37,0.62,0.49,-0.62,1.58,0.00
4.388,0.16,0.76,0.80,1.45,0.37,0.62,-0.54,-0.06,0.88,0.00
4.4,0.16,0.76,0.80,0.21,0.18,2.02,-0.54,-0.06,0.88,0.00
4.448,0.16,0.66,0.98,0.21,0.18,2.02,-0.54,-0.06,0.88,0.00
4.455,0.16,0.66,0.98,0.21,0.18,2.02,-0.90,0.24,0.53,0.00
4.455,0.16,0.66,0.98,0.14,-0.48,0.72,-0.90,0.24,0.53,0.00
4.505,0.04,0.71,0.42,0.14,-0.48,0.72,-0.90,0.24,0.53,0.00
4.523,0.04,0.71,0.42,0.14,-0.48,0.72,0.59,-0.14,-0.46,0.00
4.525,0.04,0.71,0.42,-0.96,0.25,-0.82,0.59,-0.14,-0.46,0.00
4.574,0.23,0.60,0.91,-0.96,0.25,-0.82,0.59,-0.14,-0.46,0.00
4.586,0.23,0.60,0.91,-0.96,0.25,-0.82,-1.14,0.22,0.84,0.00
4.586,0.23,0.60,0.91,1.04,-0.57,1.65,-1.14,0.22,0.84,0.00
4.638,-0.08,0.79,0.63,1.04,-0.57,1.65,-1.14,0.22,0.84,0.00
4.652,-0.08,0.79,0.63,1.04,-0.57,1.65,0.53,0.03,-1.11,0.00
4.653,-0.08,0.79,0.63,-1.67,1.17,-1.05,0.53,0.03,-1.11,0.00
4.704,0.03,0.70,0.72,-1.67,1.17,-1.05,0.53,0.03,-1.11,0.00
4.734,0.03,0.70,0.72,-1.67,1.17,-1.05,0.44,0.07,-1.02,0.00
4.736,0.03,0.70,0.72,-0.20,-0.01,0.01,0.44,0.07,-1.02,0.00
4.791,0.00,0.70,0.59,-0.20,-0.01,0.01,0.44,0.07,-1.02,0.00
4.795,0.00,0.70,0.59,-0.20,-0.01,0.01,0.38,-0.05,-0.43,0.00
4.795,0.00,0.70,0.59,0.44,-0.74,0.09,0.38,-0.05,-0.43,0.00
4.835,0.09,0.66,0.58,0.44,-0.74,0.09,0.38,-0.05,-0.43,0.00
4.85,0.09,0.66,0.58,0.44,-0.74,0.09,-0.12,-0.14,0.49,0.00
4.85,0.09,0.66,0.58,0.21,-0.41,-1.22,-0.12,-0.14,0.49,0.00
4.899,0.17,0.69,0.69,0.21,-0.41,-1.22,-0.12,-0.14,0.49,0.00
4.921,0.17,0.69,0.69,0.21,-0.41,-1.22,0.51,-0.30,0.16,0.00
4.923,0.17,0.69,0.69,1.63,-0.82,1.22,0.51,-0.30,0.16,0.00
4.972,0.13,0.73,0.79,1.63,-0.82,1.22,0.51,-0.30,0.16,0.00
4.987,0.13,0.73,0.79,1.63,-0.82,1.22,-0.51,-0.00,0.67,0.00
4.988,0.13,0.73,0.79,-0.11,0.35,0.73,-0.51,-0.00,0.67,0.00
5.032,0.10,0.69,0.68,-0.11,0.35,0.73,-0.51,-0.00,0.67,0.00
5.065,0.10,0.69,0.68,-0.11,0.35,0.73,-0.05,0.15,-0.27,0.00
5.067,0.10,0.69,0.68,-0.39,0.06,0.71,-0.05,0.15,-0.27,0.00
5.097,-0.04,0.73,0.79,-0.39,0.06,0.71,-0.05,0.15,-0.27,0.00
5.115,-0.04,0.73,0.79,-0.39,0.06,0.71,-0.34,0.40,-0.80,0.00
5.118,-0.04,0.73,0.79,-0.92,0.44,0.63,-0.34,0.40,-0.80,0.00
5.186,0.02,0.67,0.77,-0.92,0.44,0.63,-0.34,0.40,-0.80,0.00
5.187,0.02,0.67,0.77,-0.92,0.44,0.63,-0.35,0.28,-0.41,0.00
5.188,0.02,0.67,0.77,-0.08,-0.03,0.29,-0.35,0.28,-0.41,0.00
5.23,0.13,0.63,0.65,-0.08,-0.03,0.29,-0.35,0.28,-0.41,0.00
5.246,0.13,0.63,0.65,-0.08,-0.03,0.29,0.22,-0.19,0.55,0.00
5.247,0.13,0.63,0.65,1.14,-0.52,-0.23,0.22,-0.19,0.55,0.00
5.295,0.14,0.64,0.69,1.14,-0.52,-0.23,0.22,-0.19,0.55,0.00
5.315,0.14,0.64,0.69,1.14,-0.52,-0.23,-0.15,-0.21,1.00,0.00
5.317,0.14,0.64,0.69,0.27,-0.34,-0.46,-0.15,-0.21,1.00,0.00
5.365,0.08,0.67,0.77,0.27,-0.34,-0.46,-0.15,-0.21,1.00,0.00
5.378,0.08,0.67,0.77,0.27,-0.34,-0.46,0.06,-0.03,0.02,0.00
5.378,0.08,0.67,0.77,-0.39,-0.10,0.41,0.06,-0.03,0.02,0.00
5.427,-0.04,0.73,0.70,-0.39,-0.10,0.41,0.06,-0.03,0.02,0.00
5.464,-0.04,0.73,0.70,-0.39,-0.10,0.41,0.14,0.16,-0.80,0.00
5.467,-0.04,0.73,0.70,-0.80,0.32,0.40,0.14,0.16,-0.80,0.00
5.493,0.03,0.69,0.80,-0.80,0.32,0.40,0.14,0.16,-0.80,0.00
5.511,0.03,0.69,0.80,-0.80,0.32,0.40,-0.19,0.12,-0.46,0.00
5.513,0.03,0.69,0.80,-1.07,0.41,-0.34,-0.19,0.12,-0.46,0.00
5.584,-0.10,0.75,0.80,-1.07,0.41,-0.34,-0.19,0.12,-0.46,0.00
5.587,-0.10,0.75,0.80,-1.07,0.41,-0.34,0.52,0.10,-1.45,0.00
5.587,-0.10,0.75,0.80,-1.37,0.90,0.27,0.52,0.10,-1.45,0.00
5.625,-0.16,0.73,0.58,-1.37,0.90,0.27,0.52,0.10,-1.45,0.00
5.644,-0.16,0.73,0.58,-1.37,0.90,0.27,0.40,0.05,-1.22,0.00
5.648,-0.16,0.73,0.58,-0.39,-0.18,0.11,0.40,0.05,-1.22,0.00
5.691,0.00,0.62,0.86,-0.39,-0.18,0.11,0.40,0.05,-1.22,0.00
5.71,0.00,0.62,0.86,-0.39,-0.18,0.11,-0.76,-0.07,0.24,0.00
5.714,0.00,0.62,0.86,0.65,-0.37,-0.44,-0.76,-0.07,0.24,0.00
5.761,0.15,0.64,1.00,0.65,-0.37,-0.44,-0.76,-0.07,0.24,0.00
5.774,0.15,0.64,1.00,0.65,-0.37,-0.44,-0.26,-0.19,0.42,0.00
5.774,0.15,0.64,1.00,1.76,-0.24,2.47,-0.26,-0.19,0.42,0.00
5.823,0.09,0.71,0.58,1.76,-0.24,2.47,-0.26,-0.19,0.42,0.00
5.861,0.09,0.71,0.58,1.76,-0.24,2.47,-0.07,-0.40,1.28,0.00
5.866,0.09,0.71,0.58,0.36,0.64,-1.79,-0.07,-0.40,1.28,0.00
5.889,0.16,0.60,0.88,0.36,0.64,-1.79,-0.07,-0.40,1.28,0.00
5.91,0.16,0.60,0.88,0.36,0.64,-1.79,-0.28,-0.04,0.80,0.00
5.912,0.16,0.60,0.88,1.15,-0.63,2.63,-0.28,-0.04,0.80,0.00
5.985,0.03,0.67,0.65,1.15,-0.63,2.63,-0.28,-0.04,0.80,0.00
5.987,0.03,0.67,0.65,1.15,-0.63,2.63,-0.79,0.24,0.86,0.00
5.988,0.03,0.67,0.65,-0.18,0.29,0.60,-0.79,0.24,0.86,0.00
6.021,-0.01,0.61,0.53,-0.18,0.29,0.60,-0.79,0.24,0.86,0.00
6.062,-0.01,0.61,0.53,-0.18,0.29,0.60,0.80,-0.06,-0.61,0.00
6.066,-0.01,0.61,0.53,-0.94,-0.39,-2.22,0.80,-0.06,-0.61,0.00
6.087,0.02,0.58,0.91,-0.94,-0.39,-2.22,0.80,-0.06,-0.61,0.00
6.109,0.02,0.58,0.91,-0.94,-0.39,-2.22,-0.48,0.35,-0.32,0.00
6.111,0.02,0.58,0.91,0.02,-0.04,0.71,-0.48,0.35,-0.32,0.00
6.166,0.15,0.65,0.84,0.02,-0.04,0.71,-0.48,0.35,-0.32,0.00
6.179,0.15,0.65,0.84,0.02,-0.04,0.71,-0.44,0.05,0.59,0.00
6.181,0.15,0.65,0.84,0.89,0.33,0.46,-0.44,0.05,0.59,0.00
6.226,0.02,0.73,0.64,0.89,0.33,0.46,-0.44,0.05,0.59,0.00
6.238,0.02,0.73,0.64,0.89,0.33,0.46,1.17,-0.34,-0.47,0.00
6.239,0.02,0.73,0.64,-0.44,0.51,-0.94,1.17,-0.34,-0.47,0.00
6.285,0.09,0.68,0.88,-0.44,0.51,-0.94,1.17,-0.34,-0.47,0.00
6.312,0.09,0.68,0.88,-0.44,0.51,-0.94,-0.50,0.16,0.42,0.00
6.315,0.09,0.68,0.88,-1.14,0.86,-1.57,-0.50,0.16,0.42,0.00
6.401,-0.16,0.78,0.36,-1.14,0.86,-1.57,-0.50,0.16,0.42,0.00
6.403,-0.16,0.78,0.36,-1.14,0.86,-1.57,1.85,-0.05,-1.72,0.00
6.403,-0.16,0.78,0.36,-1.72,0.58,-3.18,1.85,-0.05,-1.72,0.00
6.423,0.01,0.62,0.48,-1.72,0.58,-3.18,1.85,-0.05,-1.72,0.00
6.434,0.01,0.62,0.48,-1.72,0.58,-3.18,0.02,0.08,-0.01,0.00
6.439,0.01,0.62,0.48,0.07,-1.08,-1.98,0.02,0.08,-0.01,0.00
6.514,0.14,0.63,0.91,0.07,-1.08,-1.98,0.02,0.08,-0.01,0.00
6.521,0.14,0.63,0.91,0.07,-1.08,-1.98,-0.51,0.10,0.29,0.00
6.522,0.14,0.63,0.91,2.05,-0.91,1.05,-0.51,0.10,0.29,0.00
6.549,0.00,0.79,0.75,2.05,-0.91,1.05,-0.51,0.10,0.29,0.00
6.566,0.00,0.79,0.75,2.05,-0.91,1.05,-0.04,-0.07,0.14,0.00
6.568,0.00,0.79,0.75,-1.59,1.24,0.17,-0.04,-0.07,0.14,0.00
6.615,-0.09,0.78,0.65,-1.59,1.24,0.17,-0.04,-0.07,0.14,0.00
6.632,-0.09,0.78,0.65,-1.59,1.24,0.17,0.53,0.10,-1.23,0.00
6.633,-0.09,0.78,0.65,-1.08,0.56,-0.06,0.53,0.10,-1.23,0.00
6.695,-0.01,0.69,0.64,-1.08,0.56,-0.06,0.53,0.10,-1.23,0.00
6.699,-0.01,0.69,0.64,-1.08,0.56,-0.06,0.15,0.00,-0.41,0.00
6.7,-0.01,0.69,0.64,0.17,-0.33,-0.52,0.15,0.00,-0.41,0.00
6.747,0.04,0.67,0.94,0.17,-0.33,-0.52,0.15,0.00,-0.41,0.00
6.774,0.04,0.67,0.94,0.17,-0.33,-0.52,-0.85,0.12,0.54,0.00
6.776,0.04,0.67,0.94,0.52,-0.24,2.20,-0.85,0.12,0.54,0.00
6.82,-0.02,0.72,0.59,0.52,-0.24,2.20,-0.85,0.12,0.54,0.00
6.831,-0.02,0.72,0.59,0.52,-0.24,2.20,0.26,-0.08,0.03,0.00
6.832,-0.02,0.72,0.59,-0.42,0.32,-0.93,0.26,-0.08,0.03,0.00
6.894,0.02,0.70,0.53,-0.42,0.32,-0.93,0.26,-0.08,0.03,0.00
6.898,0.02,0.70,0.53,-0.42,0.32,-0.93,0.61,-0.18,-0.05,0.00
6.901,0.02,0.70,0.53,0.12,-0.12,-1.62,0.61,-0.18,-0.05,0.00
6.945,0.08,0.68,1.06,0.12,-0.12,-1.62,0.61,-0.18,-0.05,0.00
6.966,0.08,0.68,1.06,0.12,-0.12,-1.62,-0.80,0.14,0.43,0.00
6.968,0.08,0.68,1.06,0.62,-0.15,3.35,-0.80,0.14,0.43,0.00
7.011,-0.08,0.75,0.49,0.62,-0.15,3.35,-0.80,0.14,0.43,0.00
7.028,-0.08,0.75,0.49,0.62,-0.15,3.35,0.51,-0.06,-0.62,0.00
7.028,-0.08,0.75,0.49,-1.58,0.60,-1.04,0.51,-0.06,-0.62,0.00
7.103,0.15,0.60,0.85,-1.58,0.60,-1.04,0.51,-0.06,-0.62,0.00
7.107,0.15,0.60,0.85,-1.58,0.60,-1.04,-0.55,0.09,0.39,0.00
7.107,0.15,0.60,0.85,1.39,-0.78,1.10,-0.55,0.09,0.39,0.00
7.143,0.08,0.69,0.98,1.39,-0.78,1.10,-0.55,0.09,0.39,0.00
7.16,0.08,0.69,0.98,1.39,-0.78,1.10,-0.41,0.02,0.54,0.00
7.161,0.08,0.69,0.98,0.45,0.24,2.31,-0.41,0.02,0.54,0.00
7.224,0.07,0.71,0.55,0.45,0.24,2.31,-0.41,0.02,0.54,0.00
7.226,0.07,0.71,0.55,0.45,0.24,2.31,0.47,-0.22,0.08,0.00
7.227,0.07,0.71,0.55,-1.57,1.83,-2.35,0.47,-0.22,0.08,0.00
7.275,-0.06,0.73,0.90,-1.57,1.83,-2.35,0.47,-0.22,0.08,0.00
7.302,-0.06,0.73,0.90,-1.57,1.83,-2.35,0.31,0.23,-0.92,0.00
7.304,-0.06,0.73,0.90,-0.40,0.35,1.52,0.31,0.23,-0.92,0.00
7.347,-0.05,0.73,0.38,-0.40,0.35,1.52,0.31,0.23,-0.92,0.00
7.358,-0.05,0.73,0.38,-0.40,0.35,1.52,1.42,-0.10,-0.63,0.00
7.359,-0.05,0.73,0.38,-0.32,-0.05,-2.94,1.42,-0.10,-0.63,0.00
7.407,0.09,0.62,0.69,-0.32,-0.05,-2.94,1.42,-0.10,-0.63,0.00
7.425,0.09,0.62,0.69,-0.32,-0.05,-2.94,-0.27,0.06,0.67,0.00
7.426,0.09,0.62,0.69,0.67,-0.71,-0.93,-0.27,0.06,0.67,0.00
7.493,0.13,0.63,0.70,0.67,-0.71,-0.93,-0.27,0.06,0.67,0.00
7.497,0.13,0.63,0.70,0.67,-0.71,-0.93,-0.27,-0.07,0.97,0.00
7.498,0.13,0.63,0.70,1.34,-1.17,0.96,-0.27,-0.07,0.97,0.00
7.548,0.20,0.62,0.84,1.34,-1.17,0.96,-0.27,-0.07,0.97,0.00
7.556,0.20,0.62,0.84,1.34,-1.17,0.96,-0.93,0.05,1.44,0.00
7.557,0.20,0.62,0.84,0.62,-0.22,1.40,-0.93,0.05,1.44,0.00
7.605,0.02,0.71,0.80,0.62,-0.22,1.40,-0.93,0.05,1.44,0.00
7.622,0.02,0.71,0.80,0.62,-0.22,1.40,-0.41,0.18,0.14,0.00
7.623,0.02,0.71,0.80,-0.89,0.68,0.42,-0.41,0.18,0.14,0.00
7.671,-0.08,0.71,0.61,-0.89,0.68,0.42,-0.41,0.18,0.14,0.00
7.69,-0.08,0.71,0.61,-0.89,0.68,0.42,0.65,0.09,-1.41,0.00
7.695,-0.08,0.71,0.61,-1.40,0.39,-2.33,0.65,0.09,-1.41,0.00
7.742,-0.08,0.69,0.74,-1.40,0.39,-2.33,0.65,0.09,-1.41,0.00
7.754,-0.08,0.69,0.74,-1.40,0.39,-2.33,0.82,0.05,-1.28,0.00
7.754,-0.08,0.69,0.74,-0.16,-0.65,0.33,0.82,0.05,-1.28,0.00
7.806,0.02,0.66,0.61,-0.16,-0.65,0.33,0.82,0.05,-1.28,0.00
7.82,0.02,0.66,0.61,-0.16,-0.65,0.33,0.06,-0.00,0.12,0.00
7.821,0.02,0.66,0.61,0.33,-0.49,-0.97,0.06,-0.00,0.12,0.00
7.901,0.15,0.59,0.73,0.33,-0.49,-0.97,0.06,-0.00,0.12,0.00
7.91,0.15,0.59,0.73,0.33,-0.49,-0.97,-0.36,-0.06,1.06,0.00
7.911,0.15,0.59,0.73,0.91,-0.83,-0.65,-0.36,-0.06,1.06,0.00
7.935,0.04,0.66,0.87,0.91,-0.83,-0.65,-0.36,-0.06,1.06,0.00
7.952,0.04,0.66,0.87,0.91,-0.83,-0.65,-0.70,0.13,0.52,0.00
7.953,0.04,0.66,0.87,0.19,-0.22,2.88,-0.70,0.13,0.52,0.00
8.001,-0.15,0.78,0.51,0.19,-0.22,2.88,-0.70,0.13,0.52,0.00
8.018,-0.15,0.78,0.51,0.19,-0.22,2.88,0.31,0.08,-1.03,0.00
8.018,-0.15,0.78,0.51,-1.78,1.33,-2.46,0.31,0.08,-1.03,0.00
8.067,0.04,0.66,1.05,-1.78,1.33,-2.46,0.31,0.08,-1.03,0.00
8.088,0.04,0.66,1.05,-1.78,1.33,-2.46,-0.25,0.17,-0.40,0.00
8.09,0.04,0.66,1.05,0.82,-0.27,2.34,-0.25,0.17,-0.40,0.00
8.133,-0.05,0.77,0.54,0.82,-0.27,2.34,-0.25,0.17,-0.40,0.00
8.155,-0.05,0.77,0.54,0.82,-0.27,2.34,0.41,-0.09,-0.22,0.00
8.182,-0.05,0.77,0.54,-0.36,0.99,-1.95,0.41,-0.09,-0.22,0.00
8.209,0.07,0.68,0.82,-0.36,0.99,-1.95,0.41,-0.09,-0.22,0.00
8.216,0.07,0.68,0.82,-0.36,0.99,-1.95,-0.29,-0.00,0.57,0.00
8.217,0.07,0.68,0.82,0.94,-0.40,2.17,-0.29,-0.00,0.57,0.00
8.267,0.02,0.69,0.64,0.94,-0.40,2.17,-0.29,-0.00,0.57,0.00
8.288,0.02,0.69,0.64,0.94,-0.40,2.17,-0.16,0.05,0.44,0.00
8.291,0.02,0.69,0.64,-0.13,0.26,-1.08,-0.16,0.05,0.44,0.00
8.331,0.20,0.55,0.87,-0.13,0.26,-1.08,-0.16,0.05,0.44,0.00
8.352,0.20,0.55,0.87,-0.13,0.26,-1.08,-0.38,-0.04,1.03,0.00
8.357,0.20,0.55,0.87,1.63,-1.28,3.03,-0.38,-0.04,1.03,0.00
8.397,0.21,0.55,0.79,1.63,-1.28,3.03,-0.38,-0.04,1.03,0.00
8.414,0.21,0.55,0.79,1.63,-1.28,3.03,-0.32,-0.21,1.19,0.00
8.414,0.21,0.55,0.79,0.45,-0.22,-2.55,-0.32,-0.21,1.19,0.00
8.476,0.15,0.59,0.90,0.45,-0.22,-2.55,-0.32,-0.21,1.19,0.00
8.483,0.15,0.59,0.90,0.45,-0.22,-2.55,0.03,-0.08,0.18,0.00
8.483,0.15,0.59,0.90,-0.02,-0.30,1.31,0.03,-0.08,0.18,0.00
8.529,-0.06,0.76,0.55,-0.02,-0.30,1.31,0.03,-0.08,0.18,0.00
8.55,-0.06,0.76,0.55,-0.02,-0.30,1.31,0.67,0.00,-1.07,0.00
8.563,-0.06,0.76,0.55,-1.78,1.17,-2.03,0.67,0.00,-1.07,0.00
8.595,-0.02,0.69,0.81,-1.78,1.17,-2.03,0.67,0.00,-1.07,0.00
8.612,-0.02,0.69,0.81,-1.78,1.17,-2.03,0.27,0.25,-1.29,0.00
8.613,-0.02,0.69,0.81,-0.54,0.40,-1.50,0.27,0.25,-1.29,0.00
8.661,-0.07,0.74,0.56,-0.54,0.40,-1.50,0.27,0.25,-1.29,0.00
8.681,-0.07,0.74,0.56,-0.54,0.40,-1.50,0.51,0.01,-0.94,0.00
8.684,-0.07,0.74,0.56,-0.36,-0.17,1.70,0.51,0.01,-0.94,0.00
8.727,0.15,0.64,0.54,-0.36,-0.17,1.70,0.51,0.01,-0.94,0.00
8.756,0.15,0.64,0.54,-0.36,-0.17,1.70,-0.54,-0.09,1.13,0.00
8.758,0.15,0.64,0.54,1.21,-0.31,-1.95,-0.54,-0.09,1.13,0.00
8.794,0.23,0.61,1.03,1.21,-0.31,-1.95,-0.54,-0.09,1.13,0.00
8.81,0.23,0.61,1.03,1.21,-0.31,-1.95,-0.91,-0.03,1.55,0.00
8.811,0.23,0.61,1.03,1.58,-0.32,1.59,-0.91,-0.03,1.55,0.00
8.86,0.01,0.74,0.61,1.58,-0.32,1.59,-0.91,-0.03,1.55,0.00
8.882,0.01,0.74,0.61,1.58,-0.32,1.59,0.67,-0.20,-0.58,0.00
8.885,0.01,0.74,0.61,-1.12,0.88,-1.38,0.67,-0.20,-0.58,0.00
8.925,0.03,0.67,0.83,-1.12,0.88,-1.38,0.67,-0.20,-0.58,0.00
8.942,0.03,0.67,0.83,-1.12,0.88,-1.38,0.03,0.15,-0.64,0.00
8.947,0.03,0.67,0.83,-0.41,0.00,0.94,0.03,0.15,-0.64,0.00
8.992,-0.07,0.73,0.56,-0.41,0.00,0.94,0.03,0.15,-0.64,0.00
9.008,-0.07,0.73,0.56,-0.41,0.00,0.94,0.73,0.04,-1.11,0.00
9.009,-0.07,0.73,0.56,-0.43,-0.03,-0.39,0.73,0.04,-1.11,0.00
9.06,0.09,0.60,0.63,-0.43,-0.03,-0.39,0.73,0.04,-1.11,0.00
9.081,0.09,0.60,0.63,-0.43,-0.03,-0.39,0.10,-0.04,0.24,0.00
9.083,0.09,0.60,0.63,0.81,-1.05,-1.71,0.10,-0.04,0.24,0.00
9.124,0.09,0.62,0.78,0.81,-1.05,-1.71,0.10,-0.04,0.24,0.00
9.14,0.09,0.62,0.78,0.81,-1.05,-1.71,-0.15,-0.04,0.50,0.00
9.147,0.09,0.62,0.78,0.46,-0.90,0.78,-0.15,-0.04,0.50,0.00
9.197,0.14,0.61,0.52,0.46,-0.90,0.78,-0.15,-0.04,0.50,0.00
9.211,0.14,0.61,0.52,0.46,-0.90,0.78,-0.07,-0.17,0.69,0.00
9.212,0.14,0.61,0.52,0.43,-0.85,-1.95,-0.07,-0.17,0.69,0.00
9.255,0.09,0.65,0.82,0.43,-0.85,-1.95,-0.07,-0.17,0.69,0.00
9.281,0.09,0.65,0.82,0.43,-0.85,-1.95,-0.43,0.16,0.14,0.00
9.286,0.09,0.65,0.82,-0.08,-0.19,0.19,-0.43,0.16,0.14,0.00
9.321,-0.02,0.76,0.81,-0.08,-0.19,0.19,-0.43,0.16,0.14,0.00
9.338,-0.02,0.76,0.81,-0.08,-0.19,0.19,-0.14,0.22,-0.70,0.00
9.338,-0.02,0.76,0.81,-0.83,0.71,1.16,-0.14,0.22,-0.70,0.00
9.387,-0.12,0.80,0.60,-0.83,0.71,1.16,-0.14,0.22,-0.70,0.00
9.404,-0.12,0.80,0.60,-0.83,0.71,1.16,0.82,0.01,-1.38,0.00
9.405,-0.12,0.80,0.60,-1.24,0.89,-0.98,0.82,0.01,-1.38,0.00
9.453,-0.00,0.68,0.64,-1.24,0.89,-0.98,0.82,0.01,-1.38,0.00
9.477,-0.00,0.68,0.64,-1.24,0.89,-0.98,0.20,0.07,-0.66,0.00
9.482,-0.00,0.68,0.64,0.37,-0.39,-0.46,0.20,0.07,-0.66,0.00
9.519,0.04,0.68,0.70,0.37,-0.39,-0.46,0.20,0.07,-0.66,0.00
9.536,0.04,0.68,0.70,0.37,-0.39,-0.46,-0.04,-0.09,0.53,0.00
9.536,0.04,0.68,0.70,1.76,-1.18,1.92,-0.04,-0.09,0.53,0.00
9.585,0.13,0.71,0.62,1.76,-1.18,1.92,-0.04,-0.09,0.53,0.00
9.602,0.13,0.71,0.62,1.76,-1.18,1.92,-0.47,-0.24,1.59,0.00
9.603,0.13,0.71,0.62,0.63,0.03,-0.87,-0.47,-0.24,1.59,0.00
9.658,0.18,0.62,0.85,0.63,0.03,-0.87,-0.47,-0.24,1.59,0.00
9.674,0.18,0.62,0.85,0.63,0.03,-0.87,-0.88,0.06,1.20,0.00
9.677,0.18,0.62,0.85,0.61,-0.43,1.11,-0.88,0.06,1.20,0.00
9.717,0.05,0.67,0.82,0.61,-0.43,1.11,-0.88,0.06,1.20,0.00
9.734,0.05,0.67,0.82,0.61,-0.43,1.11,-0.31,0.23,-0.20,0.00
9.734,0.05,0.67,0.82,-0.65,0.18,0.41,-0.31,0.23,-0.20,0.00
9.784,0.00,0.68,0.67,-0.65,0.18,0.41,-0.31,0.23,-0.20,0.00
9.8,0.00,0.68,0.67,-0.65,0.18,0.41,0.39,0.10,-1.02,0.00
9.801,0.00,0.68,0.67,-1.20,0.56,-1.09,0.39,0.10,-1.02,0.00
9.859,0.12,0.66,0.84,-1.20,0.56,-1.09,0.39,0.10,-1.02,0.00
9.874,0.12,0.66,0.84,-1.20,0.56,-1.09,-0.05,0.10,-0.27,0.00
9.876,0.12,0.66,0.84,0.82,-0.13,1.03,-0.05,0.10,-0.27,0.00
9.915,0.08,0.73,0.73,0.82,-0.13,1.03,-0.05,0.10,-0.27,0.00
9.932,0.08,0.73,0.73,0.82,-0.13,1.03,-0.01,-0.09,0.37,0.00
9.933,0.08,0.73,0.73,0.19,0.60,-0.18,-0.01,-0.09,0.37,0.00
9.981,0.09,0.66,0.81,0.19,0.60,-0.18,-0.01,-0.09,0.37,0.00
9.998,0.09,0.66,0.81,0.19,0.60,-0.18,-0.20,0.02,0.37,0.00
9.998,0.09,0.66,0.81,0.18,-0.29,0.78,-0.20,0.02,0.37,0.00
10.055,0.11,0.61,0.73,0.18,-0.29,0.78,-0.20,0.02,0.37,0.00
10.07,0.11,0.61,0.73,0.18,-0.29,0.78,-0.27,0.06,0.40,0.00
10.072,0.11,0.61,0.73,0.09,-0.35,-0.30,-0.27,0.06,0.40,0.00
10.113,0.16,0.57,0.70,0.09,-0.35,-0.30,-0.27,0.06,0.40,0.00
10.13,0.16,0.57,0.70,0.09,-0.35,-0.30,-0.14,-0.01,0.41,0.00
10.131,0.16,0.57,0.70,0.18,0.00,-0.46,-0.14,-0.01,0.41,0.00
10.21,0.17,0.63,0.92,0.18,0.00,-0.46,-0.14,-0.01,0.41,0.00
10.214,0.17,0.63,0.92,0.18,0.00,-0.46,-0.23,0.11,0.24,0.00
10.214,0.17,0.63,0.92,0.15,0.35,1.77,-0.23,0.11,0.24,0.00
10.249,0.05,0.69,0.37,0.15,0.35,1.77,-0.23,0.11,0.24,0.00
10.273,0.05,0.69,0.37,0.15,0.35,1.77,1.08,-0.38,-0.62,0.00
10.275,0.05,0.69,0.37,-0.60,0.15,-3.60,1.08,-0.38,-0.62,0.00
10.311,0.13,0.56,0.90,-0.60,0.15,-3.60,1.08,-0.38,-0.62,0.00
10.328,0.13,0.56,0.90,-0.60,0.15,-3.60,-0.71,0.30,0.53,0.00
10.328,0.13,0.56,0.90,0.14,-0.79,1.33,-0.71,0.30,0.53,0.00
10.377,-0.12,0.74,0.49,0.14,-0.79,1.33,-0.71,0.30,0.53,0.00
10.394,-0.12,0.74,0.49,0.14,-0.79,1.33,0.44,0.18,-1.20,0.00
10.394,-0.12,0.74,0.49,-1.11,-0.08,0.19,0.44,0.18,-1.20,0.00
10.443,0.07,0.61,0.76,-1.11,-0.08,0.19,0.44,0.18,-1.20,0.00
10.467,0.07,0.61,0.76,-1.11,-0.08,0.19,-0.25,0.17,-0.24,0.00
10.469,0.07,0.61,0.76,-0.13,0.17,-0.31,-0.25,0.17,-0.24,0.00
10.509,0.09,0.69,0.79,-0.13,0.17,-0.31,-0.25,0.17,-0.24,0.00
10.527,0.09,0.69,0.79,-0.13,0.17,-0.31,0.13,-0.09,-0.08,0.00
10.528,0.09,0.69,0.79,0.66,0.31,0.39,0.13,-0.09,-0.08,0.00
10.59,0.04,0.70,0.75,0.66,0.31,0.39,0.13,-0.09,-0.08,0.00
10.596,0.04,0.70,0.75,0.66,0.31,0.39,0.14,-0.11,-0.04,0.00
10.597,0.04,0.70,0.75,-0.43,0.54,-0.41,0.14,-0.11,-0.04,0.00
10.642,-0.01,0.72,0.75,-0.43,0.54,-0.41,0.14,-0.11,-0.04,0.00
10.675,-0.01,0.72,0.75,-0.43,0.54,-0.41,0.25,-0.03,-0.43,0.00
10.677,-0.01,0.72,0.75,-0.05,-0.01,0.74,0.25,-0.03,-0.43,0.00
10.707,-0.00,0.69,0.67,-0.05,-0.01,0.74,0.25,-0.03,-0.43,0.00
10.724,-0.00,0.69,0.67,-0.05,-0.01,0.74,0.08,-0.00,-0.06,0.00
10.725,-0.00,0.69,0.67,-0.09,0.13,-0.63,0.08,-0.00,-0.06,0.00
10.778,0.08,0.62,0.82,-0.09,0.13,-0.63,0.08,-0.00,-0.06,0.00
10.79,0.08,0.62,0.82,-0.09,0.13,-0.63,-0.48,0.12,0.46,0.00
10.791,0.08,0.62,0.82,0.69,-0.48,0.72,-0.48,0.12,0.46,0.00
10.839,0.05,0.67,0.73,0.69,-0.48,0.72,-0.48,0.12,0.46,0.00
10.866,0.05,0.67,0.73,0.69,-0.48,0.72,-0.11,-0.04,0.54,0.00
10.868,0.05,0.67,0.73,0.82,-0.30,1.47,-0.11,-0.04,0.54,0.00
10.906,0.24,0.57,0.71,0.82,-0.30,1.47,-0.11,-0.04,0.54,0.00
10.95,0.24,0.57,0.71,0.82,-0.30,1.47,-0.15,-0.35,1.37,0.00
10.958,0.24,0.57,0.71,0.35,0.30,-1.94,-0.15,-0.35,1.37,0.00
10.971,0.19,0.65,0.78,0.35,0.30,-1.94,-0.15,-0.35,1.37,0.00
10.988,0.19,0.65,0.78,0.35,0.30,-1.94,0.33,-0.31,0.43,0.00
10.99,0.19,0.65,0.78,0.46,-0.03,0.37,0.33,-0.31,0.43,0.00
11.037,0.01,0.70,0.50,0.46,-0.03,0.37,0.33,-0.31,0.43,0.00
11.063,0.01,0.70,0.50,0.46,-0.03,0.37,0.82,-0.20,-0.81,0.00
11.065,0.01,0.70,0.50,-1.17,0.03,-1.19,0.82,-0.20,-0.81,0.00
11.11,0.08,0.64,0.87,-1.17,0.03,-1.19,0.82,-0.20,-0.81,0.00
11.128,0.08,0.64,0.87,-1.17,0.03,-1.19,-0.45,0.28,-0.34,0.00
11.13,0.08,0.64,0.87,0.04,-0.52,0.72,-0.45,0.28,-0.34,0.00
11.178,0.05,0.70,0.84,0.04,-0.52,0.72,-0.45,0.28,-0.34,0.00
11.19,0.05,0.70,0.84,0.04,-0.52,0.72,-0.26,0.13,-0.29,0.00
11.191,0.05,0.70,0.84,-0.05,0.22,1.04,-0.26,0.13,-0.29,0.00
11.242,0.26,0.65,1.04,-0.05,0.22,1.04,-0.26,0.13,-0.29,0.00
11.255,0.26,0.65,1.04,-0.05,0.22,1.04,-1.20,0.15,1.46,0.00
11.256,0.26,0.65,1.04,0.49,1.07,0.80,-1.20,0.15,1.46,0.00
11.31,0.07,0.83,0.31,0.49,1.07,0.80,-1.20,0.15,1.46,0.00
11.318,0.07,0.83,0.31,0.49,1.07,0.80,1.60,-0.74,-0.71,0.00
11.319,0.07,0.83,0.31,-0.17,1.39,-2.23,1.60,-0.74,-0.71,0.00
11.367,0.28,0.62,1.21,-0.17,1.39,-2.23,1.60,-0.74,-0.71,0.00
11.393,0.28,0.62,1.21,-0.17,1.39,-2.23,-0.95,0.23,1.03,0.00
11.394,0.28,0.62,1.21,0.87,-0.55,4.59,-0.95,0.23,1.03,0.00
11.433,-0.07,0.79,0.24,0.87,-0.55,4.59,-0.95,0.23,1.03,0.00
11.453,-0.07,0.79,0.24,0.87,-0.55,4.59,1.21,-0.21,-1.17,0.00
11.454,-0.07,0.79,0.24,-1.83,1.15,-4.82,1.21,-0.21,-1.17,0.00
11.503,0.16,0.50,0.82,-1.83,1.15,-4.82,1.21,-0.21,-1.17,0.00
11.516,0.16,0.50,0.82,-1.83,1.15,-4.82,-0.20,0.16,0.10,0.00
11.517,0.16,0.50,0.82,1.74,-2.73,0.54,-0.20,0.16,0.10,0.00
11.565,0.12,0.61,0.48,1.74,-2.73,0.54,-0.20,0.16,0.10,0.00
11.588,0.12,0.61,0.48,1.74,-2.73,0.54,-0.02,-0.19,0.72,0.00
11.594,0.12,0.61,0.48,0.35,-0.72,0.34,-0.02,-0.19,0.72,0.00
11.631,0.31,0.58,0.90,0.35,-0.72,0.34,-0.02,-0.19,0.72,0.00
11.66,0.31,0.58,0.90,0.35,-0.72,0.34,-1.39,0.23,1.93,0.00
11.661,0.31,0.58,0.90,-0.79,1.05,-0.71,-1.39,0.23,1.93,0.00
11.697,-0.01,0.82,0.96,-0.79,1.05,-0.71,-1.39,0.23,1.93,0.00
11.714,-0.01,0.82,0.96,-0.79,1.05,-0.71,-0.08,0.35,-1.09,0.00
11.715,-0.01,0.82,0.96,-0.65,1.02,2.51,-0.08,0.35,-1.09,0.00
11.763,0.12,0.73,0.66,-0.65,1.02,2.51,-0.08,0.35,-1.09,0.00
11.786,0.12,0.73,0.66,-0.65,1.02,2.51,0.47,-0.11,-0.69,0.00
11.788,0.12,0.73,0.66,-0.30,1.13,-2.00,0.47,-0.11,-0.69,0.00
11.829,0.27,0.57,0.90,-0.30,1.13,-2.00,0.47,-0.11,-0.69,0.00
11.857,0.27,0.57,0.90,-0.30,1.13,-2.00,-0.23,-0.09,0.65,0.00
11.859,0.27,0.57,0.90,1.19,-0.71,1.48,-0.23,-0.09,0.65,0.00
11.9,0.02,0.69,0.64,1.19,-0.71,1.48,-0.23,-0.09,0.65,0.00
11.912,0.02,0.69,0.64,1.19,-0.71,1.48,0.17,0.07,-0.53,0.00
11.913,0.02,0.69,0.64,-1.14,0.40,-1.13,0.17,0.07,-0.53,0.00
11.961,0.13,0.61,0.67,-1.14,0.40,-1.13,0.17,0.07,-0.53,0.00
11.978,0.13,0.61,0.67,-1.14,0.40,-1.13,0.32,-0.10,-0.20,0.00
11.978,0.13,0.61,0.67,-0.23,-0.50,-0.14,0.32,-0.10,-0.20,0.00
12.029,0.12,0.62,0.58,-0.23,-0.50,-0.14,0.32,-0.10,-0.20,0.00
12.048,0.12,0.62,0.58,-0.23,-0.50,-0.14,0.62,-0.24,-0.28,0.00
12.052,0.12,0.62,0.58,-0.24,-0.42,-1.76,0.62,-0.24,-0.28,0.00
12.1,0.13,0.60,0.81,-0.24,-0.42,-1.76,0.62,-0.24,-0.28,0.00
12.111,0.13,0.60,0.81,-0.24,-0.42,-1.76,-0.39,0.17,0.18,0.00
12.112,0.13,0.60,0.81,0.09,-0.89,0.95,-0.39,0.17,0.18,0.00
12.177,-0.02,0.71,0.42,0.09,-0.89,0.95,-0.39,0.17,0.18,0.00
12.179,-0.02,0.71,0.42,0.09,-0.89,0.95,0.83,-0.16,-0.94,0.00
12.18,-0.02,0.71,0.42,-1.12,-0.05,-2.69,0.83,-0.16,-0.94,0.00
12.225,0.25,0.60,1.11,-1.12,-0.05,-2.69,0.83,-0.16,-0.94,0.00
12.253,0.25,0.60,1.11,-1.12,-0.05,-2.69,-1.51,0.42,1.11,0.00
12.256,0.25,0.60,1.11,1.14,-0.22,1.93,-1.51,0.42,1.11,0.00
12.302,-0.03,0.83,0.55,1.14,-0.22,1.93,-1.51,0.42,1.11,0.00
12.308,-0.03,0.83,0.55,1.14,-0.22,1.93,1.29,-0.42,-1.14,0.00
12.309,-0.03,0.83,0.55,-1.12,1.19,-1.46,1.29,-0.42,-1.14,0.00
12.357,0.17,0.60,0.87,-1.12,1.19,-1.46,1.29,-0.42,-1.14,0.00
12.374,0.17,0.60,0.87,-1.12,1.19,-1.46,-0.90,0.21,0.56,0.00
12.375,0.17,0.60,0.87,-0.03,-0.24,-0.08,-0.90,0.21,0.56,0.00
12.432,0.00,0.69,0.75,-0.03,-0.24,-0.08,-0.90,0.21,0.56,0.00
12.45,0.00,0.69,0.75,-0.03,-0.24,-0.08,-0.32,0.21,-0.21,0.00
12.452,0.00,0.69,0.75,-0.17,-0.48,0.26,-0.32,0.21,-0.21,0.00
12.489,0.12,0.56,0.66,-0.17,-0.48,0.26,-0.32,0.21,-0.21,0.00
12.506,0.12,0.56,0.66,-0.17,-0.48,0.26,-0.09,-0.02,0.21,0.00
12.507,0.12,0.56,0.66,-0.05,-0.47,-1.13,-0.09,-0.02,0.21,0.00
12.555,0.16,0.63,0.86,-0.05,-0.47,-1.13,-0.09,-0.02,0.21,0.00
12.572,0.16,0.63,0.86,-0.05,-0.47,-1.13,-0.13,-0.06,0.30,0.00
12.573,0.16,0.63,0.86,0.64,-0.20,1.01,-0.13,-0.06,0.30,0.00
12.621,0.17,0.67,0.74,0.64,-0.20,1.01,-0.13,-0.06,0.30,0.00
12.641,0.17,0.67,0.74,0.64,-0.20,1.01,0.02,-0.23,0.48,0.00
12.643,0.17,0.67,0.74,0.07,0.62,-0.77,0.02,-0.23,0.48,0.00
12.691,0.09,0.68,0.94,0.07,0.62,-0.77,0.02,-0.23,0.48,0.00
12.704,0.09,0.68,0.94,0.07,0.62,-0.77,-0.20,0.09,-0.06,0.00
12.705,0.09,0.68,0.94,0.30,-0.20,2.75,-0.20,0.09,-0.06,0.00
12.753,0.02,0.69,0.58,0.30,-0.20,2.75,-0.20,0.09,-0.06,0.00
12.77,0.02,0.69,0.58,0.30,-0.20,2.75,0.22,0.01,-0.44,0.00
12.771,0.02,0.69,0.58,-0.95,0.67,-1.87,0.22,0.01,-0.44,0.00
12.819,0.09,0.62,0.87,-0.95,0.67,-1.87,0.22,0.01,-0.44,0.00
12.842,0.09,0.62,0.87,-0.95,0.67,-1.87,-0.23,0.19,-0.17,0.00
12.846,0.09,0.62,0.87,0.31,-0.59,2.05,-0.23,0.19,-0.17,0.00
12.885,0.10,0.61,0.83,0.31,-0.59,2.05,-0.23,0.19,-0.17,0.00
12.911,0.10,0.61,0.83,0.31,-0.59,2.05,-0.55,0.23,0.27,0.00
12.913,0.10,0.61,0.83,-0.52,0.46,-0.65,-0.55,0.23,0.27,0.00
12.951,0.07,0.63,0.74,-0.52,0.46,-0.65,-0.55,0.23,0.27,0.00
12.968,0.07,0.63,0.74,-0.52,0.46,-0.65,0.15,0.02,-0.24,0.00
12.969,0.07,0.63,0.74,-0.17,-0.17,-0.43,0.15,0.02,-0.24,0.00
13.017,-0.00,0.65,0.69,-0.17,-0.17,-0.43,0.15,0.02,-0.24,0.00
13.038,-0.00,0.65,0.69,-0.17,-0.17,-0.43,0.44,-0.01,-0.69,0.00
13.04,-0.00,0.65,0.69,-0.24,0.06,-0.87,0.44,-0.01,-0.69,0.00
13.083,0.09,0.64,0.71,-0.24,0.06,-0.87,0.44,-0.01,-0.69,0.00
13.118,0.09,0.64,0.71,-0.24,0.06,-0.87,0.29,-0.14,-0.05,0.00
13.12,0.09,0.64,0.71,0.10,0.05,-0.58,0.29,-0.14,-0.05,0.00
13.149,0.08,0.68,0.76,0.10,0.05,-0.58,0.29,-0.14,-0.05,0.00
13.166,0.08,0.68,0.76,0.10,0.05,-0.58,0.09,-0.08,0.07,0.00
13.167,0.08,0.68,0.76,0.35,0.13,0.48,0.09,-0.08,0.07,0.00
13.218,0.10,0.71,0.75,0.35,0.13,0.48,0.09,-0.08,0.07,0.00
13.237,0.10,0.71,0.75,0.35,0.13,0.48,0.05,-0.09,0.20,0.00
13.238,0.10,0.71,0.75,0.16,0.43,-0.74,0.05,-0.09,0.20,0.00
13.281,0.07,0.71,0.76,0.16,0.43,-0.74,0.05,-0.09,0.20,0.00
13.298,0.07,0.71,0.76,0.16,0.43,-0.74,0.17,-0.06,-0.07,0.00
13.299,0.07,0.71,0.76,-0.04,-0.03,0.79,0.17,-0.06,-0.07,0.00
13.347,0.09,0.68,0.67,-0.04,-0.03,0.79,0.17,-0.06,-0.07,0.00
13.364,0.09,0.68,0.67,-0.04,-0.03,0.79,0.13,-0.04,0.02,0.00
13.365,0.09,0.68,0.67,-0.09,-0.04,-0.43,0.13,-0.04,0.02,0.00
13.413,0.11,0.65,0.61,-0.09,-0.04,-0.43,0.13,-0.04,0.02,0.00
13.436,0.11,0.65,0.61,-0.09,-0.04,-0.43,0.20,-0.11,0.13,0.00
13.44,0.11,0.65,0.61,0.20,-0.40,0.38,0.20,-0.11,0.13,0.00
13.479,0.05,0.65,0.63,0.20,-0.40,0.38,0.20,-0.11,0.13,0.00
13.502,0.05,0.65,0.63,0.20,-0.40,0.38,-0.07,-0.00,0.04,0.00
13.504,0.05,0.65,0.63,-0.40,-0.31,-0.90,-0.07,-0.00,0.04,0.00
13.545,0.09,0.63,0.78,-0.40,-0.31,-0.90,-0.07,-0.00,0.04,0.00
13.562,0.09,0.63,0.78,-0.40,-0.31,-0.90,-0.34,0.14,0.01,0.00
13.563,0.09,0.63,0.78,-0.05,-0.25,-0.52,-0.34,0.14,0.01,0.00
13.611,0.09,0.66,0.89,-0.05,-0.25,-0.52,-0.34,0.14,0.01,0.00
13.632,0.09,0.66,0.89,-0.05,-0.25,-0.52,-0.59,0.16,0.40,0.00
13.635,0.09,0.66,0.89,0.68,-0.04,1.48,-0.59,0.16,0.40,0.00
13.677,0.11,0.73,0.60,0.68,-0.04,1.48,-0.59,0.16,0.40,0.00
13.694,0.11,0.73,0.60,0.68,-0.04,1.48,0.25,-0.31,0.42,0.00
13.694,0.11,0.73,0.60,-0.07,0.82,-1.50,0.25,-0.31,0.42,0.00
13.764,0.10,0.68,0.95,-0.07,0.82,-1.50,0.25,-0.31,0.42,0.00
13.766,0.10,0.68,0.95,-0.07,0.82,-1.50,0.04,0.02,-0.15,0.00
13.766,0.10,0.68,0.95,-0.11,0.13,2.09,0.04,0.02,-0.15,0.00
13.809,0.03,0.69,0.62,-0.11,0.13,2.09,0.04,0.02,-0.15,0.00
13.827,0.03,0.69,0.62,-0.11,0.13,2.09,0.57,-0.02,-0.85,0.00
13.829,0.03,0.69,0.62,-1.06,0.40,-1.42,0.57,-0.02,-0.85,0.00
13.875,0.08,0.58,0.63,-1.06,0.40,-1.42,0.57,-0.02,-0.85,0.00
13.892,0.08,0.58,0.63,-1.06,0.40,-1.42,0.32,0.03,-0.54,0.00
13.893,0.08,0.58,0.63,0.28,-1.15,-0.86,0.32,0.03,-0.54,0.00
13.941,0.13,0.59,0.75,0.28,-1.15,-0.86,0.32,0.03,-0.54,0.00
13.958,0.13,0.59,0.75,0.28,-1.15,-0.86,-0.39,0.07,0.50,0.00
13.959,0.13,0.59,0.75,0.70,-0.95,0.22,-0.39,0.07,0.50,0.00
14.008,0.17,0.64,0.70,0.70,-0.95,0.22,-0.39,0.07,0.50,0.00
14.028,0.17,0.64,0.70,0.70,-0.95,0.22,-0.21,-0.16,0.90,0.00
14.031,0.17,0.64,0.70,0.39,-0.12,-0.48,-0.21,-0.16,0.90,0.00
14.073,0.10,0.68,0.84,0.39,-0.12,-0.48,-0.21,-0.16,0.90,0.00
14.091,0.10,0.68,0.84,0.39,-0.12,-0.48,-0.21,0.05,0.09,0.00
14.092,0.10,0.68,0.84,-0.61,0.32,0.29,-0.21,0.05,0.09,0.00
14.165,0.01,0.71,0.89,-0.61,0.32,0.29,-0.21,0.05,0.09,0.00
14.168,0.01,0.71,0.89,-0.61,0.32,0.29,0.10,0.13,-0.70,0.00
14.169,0.01,0.71,0.89,0.01,-0.23,1.05,0.10,0.13,-0.70,0.00
14.227,0.09,0.63,0.82,0.01,-0.23,1.05,0.10,0.13,-0.70,0.00
14.229,0.09,0.63,0.82,0.01,-0.23,1.05,-0.47,0.20,0.07,0.00
14.23,0.09,0.63,0.82,-0.48,0.27,0.02,-0.47,0.20,0.07,0.00
14.271,0.03,0.65,0.80,-0.48,0.27,0.02,-0.47,0.20,0.07,0.00
14.288,0.03,0.65,0.80,-0.48,0.27,0.02,-0.02,0.14,-0.41,0.00
14.288,0.03,0.65,0.80,-0.52,0.01,-0.45,-0.02,0.14,-0.41,0.00
14.337,-0.09,0.71,0.70,-0.52,0.01,-0.45,-0.02,0.14,-0.41,0.00
14.354,-0.09,0.71,0.70,-0.52,0.01,-0.45,0.44,0.12,-0.95,0.00
14.354,-0.09,0.71,0.70,-1.11,0.53,-0.49,0.44,0.12,-0.95,0.00
14.406,0.02,0.65,0.80,-1.11,0.53,-0.49,0.44,0.12,-0.95,0.00
14.426,0.02,0.65,0.80,-1.11,0.53,-0.49,-0.05,0.10,-0.20,0.00
14.428,0.02,0.65,0.80,0.29,-0.15,0.57,-0.05,0.10,-0.20,0.00
14.469,0.07,0.65,0.72,0.29,-0.15,0.57,-0.05,0.10,-0.20,0.00
14.486,0.07,0.65,0.72,0.29,-0.15,0.57,-0.04,-0.16,0.61,0.00
14.486,0.07,0.65,0.72,0.48,-0.11,0.33,-0.04,-0.16,0.61,0.00
14.549,0.16,0.64,0.65,0.48,-0.11,0.33,-0.04,-0.16,0.61,0.00
14.554,0.16,0.64,0.65,0.48,-0.11,0.33,0.16,-0.29,0.77,0.00
14.556,0.16,0.64,0.65,0.98,-0.27,-0.93,0.16,-0.29,0.77,0.00
14.602,0.12,0.65,0.72,0.98,-0.27,-0.93,0.16,-0.29,0.77,0.00
14.64,0.12,0.65,0.72,0.98,-0.27,-0.93,-0.32,-0.03,0.58,0.00
14.641,0.12,0.65,0.72,0.02,0.23,-1.93,-0.32,-0.03,0.58,0.00
14.667,0.04,0.68,0.65,0.02,0.23,-1.93,-0.32,-0.03,0.58,0.00
14.684,0.04,0.68,0.65,0.02,0.23,-1.93,0.46,-0.15,-0.31,0.00
14.685,0.04,0.68,0.65,-0.50,0.17,-0.92,0.46,-0.15,-0.31,0.00
14.753,0.04,0.68,0.65,-0.50,0.17,-0.92,0.42,-0.06,-0.48,0.00
14.755,0.04,0.68,0.65,-0.61,0.10,0.13,0.42,-0.06,-0.48,0.00
14.756,0.03,0.68,0.80,-0.61,0.10,0.13,0.42,-0.06,-0.48,0.00
14.799,0.05,0.67,0.72,-0.61,0.10,0.13,0.42,-0.06,-0.48,0.00
14.826,0.05,0.67,0.72,-0.61,0.10,0.13,-0.29,0.12,-0.03,0.00
14.828,0.05,0.67,0.72,-0.79,0.65,0.00,-0.29,0.12,-0.03,0.00
14.865,0.01,0.72,0.85,-0.79,0.65,0.00,-0.29,0.12,-0.03,0.00
14.882,0.01,0.72,0.85,-0.79,0.65,0.00,-0.03,0.12,-0.57,0.00
14.883,0.01,0.72,0.85,-0.24,0.58,1.02,-0.03,0.12,-0.57,0.00
14.947,0.27,0.57,0.79,-0.24,0.58,1.02,-0.03,0.12,-0.57,0.00
14.949,0.27,0.57,0.79,-0.24,0.58,1.02,-0.60,-0.06,1.16,0.00
14.949,0.27,0.57,0.79,1.02,0.23,-2.21,-0.60,-0.06,1.16,0.00
14.997,0.04,0.67,0.72,1.02,0.23,-2.21,-0.60,-0.06,1.16,0.00
15.025,0.04,0.67,0.72,1.02,0.23,-2.21,0.81,-0.33,-0.19,0.00
15.027,0.04,0.67,0.72,-0.26,-0.47,1.27,0.81,-0.33,-0.19,0.00
15.063,0.08,0.58,0.73,-0.26,-0.47,1.27,0.81,-0.33,-0.19,0.00
15.08,0.08,0.58,0.73,-0.26,-0.47,1.27,-0.49,0.21,0.28,0.00
15.081,0.08,0.58,0.73,-0.13,-0.58,-0.38,-0.49,0.21,0.28,0.00
15.129,-0.07,0.64,0.55,-0.13,-0.58,-0.38,-0.49,0.21,0.28,0.00
15.146,-0.07,0.64,0.55,-0.13,-0.58,-0.38,0.57,0.04,-0.97,0.00
15.149,-0.07,0.64,0.55,-0.54,-0.90,-0.34,0.57,0.04,-0.97,0.00
15.206,0.06,0.61,0.71,-0.54,-0.90,-0.34,0.57,0.04,-0.97,0.00
15.22,0.06,0.61,0.71,-0.54,-0.90,-0.34,0.09,-0.02,0.04,0.00
15.221,0.06,0.61,0.71,0.15,-0.65,-0.28,0.09,-0.02,0.04,0.00
15.264,0.16,0.63,1.02,0.15,-0.65,-0.28,0.09,-0.02,0.04,0.00
15.279,0.16,0.63,1.02,0.15,-0.65,-0.28,-1.03,0.18,0.88,0.00
15.28,0.16,0.63,1.02,0.93,-0.03,2.47,-1.03,0.18,0.88,0.00
15.327,0.04,0.74,0.76,0.93,-0.03,2.47,-1.03,0.18,0.88,0.00
15.352,0.04,0.74,0.76,0.93,-0.03,2.47,0.22,-0.15,-0.13,0.00
15.357,0.04,0.74,0.76,-0.38,1.01,-0.14,0.22,-0.15,-0.13,0.00
15.393,0.04,0.70,0.81,-0.38,1.01,-0.14,0.22,-0.15,-0.13,0.00
15.412,0.04,0.70,0.81,-0.38,1.01,-0.14,0.10,0.04,-0.43,0.00
15.414,0.04,0.70,0.81,-0.54,0.73,-0.65,0.10,0.04,-0.43,0.00
15.467,0.12,0.62,0.82,-0.54,0.73,-0.65,0.10,0.04,-0.43,0.00
15.477,0.12,0.62,0.82,-0.54,0.73,-0.65,0.27,-0.07,-0.26,0.00
15.48,0.12,0.62,0.82,0.82,-0.43,0.67,0.27,-0.07,-0.26,0.00
15.525,0.01,0.62,0.72,0.82,-0.43,0.67,0.27,-0.07,-0.26,0.00
15.551,0.01,0.62,0.72,0.82,-0.43,0.67,-0.38,0.12,0.19,0.00
15.552,0.01,0.62,0.72,-0.46,-0.08,-0.51,-0.38,0.12,0.19,0.00
15.591,0.01,0.65,0.70,-0.46,-0.08,-0.51,-0.38,0.12,0.19,0.00
15.611,0.01,0.65,0.70,-0.46,-0.08,-0.51,0.34,-0.02,-0.35,0.00
15.613,0.01,0.65,0.70,0.21,-0.37,0.27,0.34,-0.02,-0.35,0.00
15.665,0.03,0.67,0.75,0.21,-0.37,0.27,0.34,-0.02,-0.35,0.00
15.674,0.03,0.67,0.75,0.21,-0.37,0.27,0.02,0.01,-0.01,0.00
15.675,0.03,0.67,0.75,-0.10,0.14,-0.07,0.02,0.01,-0.01,0.00
15.723,0.02,0.66,0.66,-0.10,0.14,-0.07,0.02,0.01,-0.01,0.00
15.749,0.02,0.66,0.66,-0.10,0.14,-0.07,0.43,-0.14,-0.15,0.00
15.751,0.02,0.66,0.66,-0.16,-0.08,-0.81,0.43,-0.14,-0.15,0.00
15.789,0.08,0.66,0.80,-0.16,-0.08,-0.81,0.43,-0.14,-0.15,0.00
15.808,0.08,0.66,0.80,-0.16,-0.08,-0.81,-0.15,-0.02,0.27,0.00
15.812,0.08,0.66,0.80,0.06,0.04,0.75,-0.15,-0.02,0.27,0.00
15.855,0.05,0.65,0.99,0.06,0.04,0.75,-0.15,-0.02,0.27,0.00
15.872,0.05,0.65,0.99,0.06,0.04,0.75,-0.72,0.26,0.31,0.00
15.877,0.05,0.65,0.99,-0.09,0.00,-0.23,-0.72,0.26,0.31,0.00
15.921,-0.11,0.70,0.62,-0.09,0.00,-0.23,-0.72,0.26,0.31,0.00
15.952,-0.11,0.70,0.62,-0.09,0.00,-0.23,1.31,-0.17,-1.30,0.00
15.955,-0.11,0.70,0.62,-1.27,0.01,-0.96,1.31,-0.17,-1.30,0.00
15.987,0.20,0.48,0.96,-1.27,0.01,-0.96,1.31,-0.17,-1.30,0.00
16.006,0.20,0.48,0.96,-1.27,0.01,-0.96,-1.55,0.29,1.53,0.00
16.008,0.20,0.48,0.96,0.66,-0.27,-0.90,-1.55,0.29,1.53,0.00
16.062,0.00,0.65,0.69,0.66,-0.27,-0.90,-1.55,0.29,1.53,0.00
16.07,0.00,0.65,0.69,0.66,-0.27,-0.90,0.37,-0.20,-0.01,0.00
16.071,0.00,0.65,0.69,0.12,0.15,-0.86,0.37,-0.20,-0.01,0.00
16.133,-0.00,0.73,0.75,0.12,0.15,-0.86,0.37,-0.20,-0.01,0.00
16.153,-0.00,0.73,0.75,0.12,0.15,-0.86,0.47,-0.16,-0.30,0.00
16.153,-0.00,0.73,0.75,-0.62,0.72,-0.05,0.47,-0.16,-0.30,0.00
16.21,0.15,0.71,0.86,-0.62,0.72,-0.05,0.47,-0.16,-0.30,0.00
16.212,0.15,0.71,0.86,-0.62,0.72,-0.05,0.13,-0.24,0.35,0.00
16.213,0.15,0.71,0.86,0.61,0.29,2.01,0.13,-0.24,0.35,0.00
16.263,0.16,0.63,0.81,0.61,0.29,2.01,0.13,-0.24,0.35,0.00
16.289,0.16,0.63,0.81,0.61,0.29,2.01,-0.47,0.01,0.66,0.00
16.291,0.16,0.63,0.81,0.02,0.17,-0.04,-0.47,0.01,0.66,0.00
16.32,0.12,0.61,0.78,0.02,0.17,-0.04,-0.47,0.01,0.66,0.00
16.342,0.12,0.61,0.78,0.02,0.17,-0.04,-0.32,0.07,0.33,0.00
16.344,0.12,0.61,0.78,0.39,-0.38,1.12,-0.32,0.07,0.33,0.00
16.387,0.09,0.69,0.75,0.39,-0.38,1.12,-0.32,0.07,0.33,0.00
16.408,0.09,0.69,0.75,0.39,-0.38,1.12,-0.04,-0.01,0.08,0.00
16.411,0.09,0.69,0.75,-0.90,1.05,1.22,-0.04,-0.01,0.08,0.00
16.462,0.06,0.65,0.78,-0.90,1.05,1.22,-0.04,-0.01,0.08,0.00
16.474,0.06,0.65,0.78,-0.90,1.05,1.22,0.12,0.17,-0.62,0.00
16.475,0.06,0.65,0.78,-1.11,0.71,-2.43,0.12,0.17,-0.62,0.00
16.515,-0.07,0.67,0.59,-1.11,0.71,-2.43,0.12,0.17,-0.62,0.00
16.532,-0.07,0.67,0.59,-1.11,0.71,-2.43,0.95,0.06,-1.34,0.00
16.534,-0.07,0.67,0.59,-0.08,-1.12,0.06,0.95,0.06,-1.34,0.00
16.581,0.04,0.57,0.65,-0.08,-1.12,0.06,0.95,0.06,-1.34,0.00
16.601,0.04,0.57,0.65,-0.08,-1.12,0.06,-0.33,0.17,0.20,0.00
16.602,0.04,0.57,0.65,0.15,-0.90,-1.01,-0.33,0.17,0.20,0.00
16.651,0.15,0.53,0.78,0.15,-0.90,-1.01,-0.33,0.17,0.20,0.00
16.664,0.15,0.53,0.78,0.15,-0.90,-1.01,-0.40,-0.03,0.81,0.00
16.665,0.15,0.53,0.78,0.48,-0.66,-1.12,-0.40,-0.03,0.81,0.00
16.713,0.07,0.63,0.83,0.48,-0.66,-1.12,-0.40,-0.03,0.81,0.00
16.73,0.07,0.63,0.83,0.48,-0.66,-1.12,-0.18,-0.05,0.34,0.00
16.73,0.07,0.63,0.83,0.04,0.11,0.93,-0.18,-0.05,0.34,0.00
16.79,0.14,0.60,0.87,0.04,0.11,0.93,-0.18,-0.05,0.34,0.00
16.814,0.14,0.60,0.87,0.04,0.11,0.93,-0.53,0.06,0.49,0.00
16.815,0.14,0.60,0.87,0.49,-0.09,0.75,-0.53,0.06,0.49,0.00
16.845,0.05,0.68,0.96,0.49,-0.09,0.75,-0.53,0.06,0.49,0.00
16.871,0.05,0.68,0.96,0.49,-0.09,0.75,-0.48,0.24,-0.09,0.00
16.872,0.05,0.68,0.96,-0.35,0.89,1.50,-0.48,0.24,-0.09,0.00
16.911,-0.07,0.70,0.54,-0.35,0.89,1.50,-0.48,0.24,-0.09,0.00
16.928,-0.07,0.70,0.54,-0.35,0.89,1.50,0.68,-0.01,-0.93,0.00
16.929,-0.07,0.70,0.54,0.94,-0.53,0.02,0.68,-0.01,-0.93,0.00
16.977,0.08,0.64,0.81,0.94,-0.53,0.02,0.68,-0.01,-0.93,0.00
16.998,0.08,0.64,0.81,0.94,-0.53,0.02,0.00,-0.09,0.16,0.00
16.999,0.08,0.64,0.81,0.27,-0.14,1.27,0.00,-0.09,0.16,0.00
17.051,-0.04,0.66,0.68,0.27,-0.14,1.27,0.00,-0.09,0.16,0.00
17.061,-0.04,0.66,0.68,0.27,-0.14,1.27,0.28,0.14,-0.59,0.00
17.062,-0.04,0.66,0.68,-0.71,0.44,-1.08,0.28,0.14,-0.59,0.00
17.109,0.15,0.56,0.69,-0.71,0.44,-1.08,0.28,0.14,-0.59,0.00
17.126,0.15,0.56,0.69,-0.71,0.44,-1.08,0.19,-0.27,0.71,0.00
17.126,0.15,0.56,0.69,1.44,-0.79,0.33,0.19,-0.27,0.71,0.00
17.196,-0.00,0.62,0.74,1.44,-0.79,0.33,0.19,-0.27,0.71,0.00
17.198,-0.00,0.62,0.74,1.44,-0.79,0.33,-0.41,0.01,0.58,0.00
17.198,-0.00,0.62,0.74,-0.86,0.07,-0.45,-0.41,0.01,0.58,0.00
17.244,0.19,0.67,0.76,-0.86,0.07,-0.45,-0.41,0.01,0.58,0.00
17.259,0.19,0.67,0.76,-0.86,0.07,-0.45,-0.16,-0.28,0.70,0.00
17.26,0.19,0.67,0.76,1.52,-0.66,2.11,-0.16,-0.28,0.70,0.00
17.307,0.20,0.58,0.77,1.52,-0.66,2.11,-0.16,-0.28,0.70,0.00
17.324,0.20,0.58,0.77,1.52,-0.66,2.11,-0.33,-0.22,0.71,0.00
17.324,0.20,0.58,0.77,0.47,0.16,-0.39,-0.33,-0.22,0.71,0.00
17.373,0.20,0.56,0.82,0.47,0.16,-0.39,-0.33,-0.22,0.71,0.00
17.398,0.20,0.56,0.82,0.47,0.16,-0.39,-0.05,-0.17,0.28,0.00
17.4,0.20,0.56,0.82,-0.59,0.31,0.47,-0.05,-0.17,0.28,0.00
17.439,0.07,0.72,0.77,-0.59,0.31,0.47,-0.05,-0.17,0.28,0.00
17.462,0.07,0.72,0.77,-0.59,0.31,0.47,0.47,0.07,-0.99,0.00
17.464,0.07,0.72,0.77,-0.79,1.05,0.28,0.47,0.07,-0.99,0.00
17.505,0.08,0.63,0.70,-0.79,1.05,0.28,0.47,0.07,-0.99,0.00
17.522,0.08,0.63,0.70,-0.79,1.05,0.28,0.29,0.13,-0.62,0.00
17.523,0.08,0.63,0.70,-0.27,0.15,-0.84,0.29,0.13,-0.62,0.00
17.58,0.04,0.59,0.62,-0.27,0.15,-0.84,0.29,0.13,-0.62,0.00
17.605,0.04,0.59,0.62,-0.27,0.15,-0.84,0.43,0.11,-0.52,0.00
17.607,0.04,0.59,0.62,-0.92,-0.45,-1.59,0.43,0.11,-0.52,0.00
17.637,0.05,0.62,0.70,-0.92,-0.45,-1.59,0.43,0.11,-0.52,0.00
17.664,0.05,0.62,0.70,-0.92,-0.45,-1.59,0.28,0.07,-0.42,0.00
17.667,0.05,0.62,0.70,0.29,-0.46,0.52,0.28,0.07,-0.42,0.00
17.703,0.06,0.67,0.60,0.29,-0.46,0.52,0.28,0.07,-0.42,0.00
17.72,0.06,0.67,0.60,0.29,-0.46,0.52,0.26,-0.10,-0.07,0.00
17.721,0.06,0.67,0.60,0.05,0.08,-1.50,0.26,-0.10,-0.07,0.00
17.769,0.10,0.62,0.92,0.05,0.08,-1.50,0.26,-0.10,-0.07,0.00
17.789,0.10,0.62,0.92,0.05,0.08,-1.50,-0.47,0.05,0.27,0.00
17.791,0.10,0.62,0.92,-0.13,-0.42,2.06,-0.47,0.05,0.27,0.00
17.835,0.05,0.66,0.73,-0.13,-0.42,2.06,-0.47,0.05,0.27,0.00
17.861,0.05,0.66,0.73,-0.13,-0.42,2.06,-0.25,0.03,-0.04,0.00
17.865,0.05,0.66,0.73,0.26,-0.20,0.39,-0.25,0.03,-0.04,0.00
17.901,0.08,0.59,0.75,0.26,-0.20,0.39,-0.25,0.03,-0.04,0.00
17.918,0.08,0.59,0.75,0.26,-0.20,0.39,-0.14,-0.08,0.20,0.00
17.918,0.08,0.59,0.75,0.11,-0.11,-0.46,-0.14,-0.08,0.20,0.00
17.967,0.15,0.58,1.03,0.11,-0.11,-0.46,-0.14,-0.08,0.20,0.00
17.99,0.15,0.58,1.03,0.11,-0.11,-0.46,-0.85,0.16,0.77,0.00
17.993,0.15,0.58,1.03,0.59,-0.01,1.64,-0.85,0.16,0.77,0.00
18.033,0.03,0.69,0.65,0.59,-0.01,1.64,-0.85,0.16,0.77,0.00
18.061,0.03,0.69,0.65,0.59,-0.01,1.64,0.44,-0.15,-0.41,0.00
18.063,0.03,0.69,0.65,-0.67,0.92,-0.92,0.44,-0.15,-0.41,0.00
18.099,0.09,0.57,0.84,-0.67,0.92,-0.92,0.44,-0.15,-0.41,0.00
18.116,0.09,0.57,0.84,-0.67,0.92,-0.92,0.02,0.04,-0.14,0.00
18.117,0.09,0.57,0.84,0.45,-0.39,-0.45,0.02,0.04,-0.14,0.00
18.179,0.22,0.57,0.70,0.45,-0.39,-0.45,0.02,0.04,-0.14,0.00
18.192,0.22,0.57,0.70,0.45,-0.39,-0.45,0.41,-0.34,0.52,0.00
18.192,0.22,0.57,0.70,0.64,-0.54,1.69,0.41,-0.34,0.52,0.00
18.237,0.08,0.57,0.99,0.64,-0.54,1.69,0.41,-0.34,0.52,0.00
18.248,0.08,0.57,0.99,0.64,-0.54,1.69,-0.92,0.41,0.59,0.00
18.248,0.08,0.57,0.99,-0.43,0.02,1.66,-0.92,0.41,0.59,0.00
18.297,0.01,0.69,0.44,-0.43,0.02,1.66,-0.92,0.41,0.59,0.00
18.319,0.01,0.69,0.44,-0.43,0.02,1.66,1.17,-0.27,-0.99,0.00
18.321,0.01,0.69,0.44,-0.42,-0.18,0.15,1.17,-0.27,-0.99,0.00
18.364,0.15,0.52,0.89,-0.42,-0.18,0.15,1.17,-0.27,-0.99,0.00
18.41,0.15,0.52,0.89,-0.42,-0.18,0.15,-0.36,0.11,0.36,0.00
18.412,0.15,0.52,0.89,-0.41,0.64,-1.90,-0.36,0.11,0.36,0.00
18.431,0.13,0.59,0.89,-0.41,0.64,-1.90,-0.36,0.11,0.36,0.00
18.448,0.13,0.59,0.89,-0.41,0.64,-1.90,0.01,-0.08,0.17,0.00
18.449,0.13,0.59,0.89,0.28,-0.25,1.05,0.01,-0.08,0.17,0.00
18.495,0.03,0.65,0.62,0.28,-0.25,1.05,0.01,-0.08,0.17,0.00
18.512,0.03,0.65,0.62,0.28,-0.25,1.05,0.39,-0.11,-0.40,0.00
18.513,0.03,0.65,0.62,-0.65,0.21,-1.50,0.39,-0.11,-0.40,0.00
18.563,0.06,0.62,0.88,-0.65,0.21,-1.50,0.39,-0.11,-0.40,0.00
18.599,0.06,0.62,0.88,-0.65,0.21,-1.50,-0.25,0.16,-0.25,0.00
18.601,0.06,0.62,0.88,-0.27,0.06,-1.40,-0.25,0.16,-0.25,0.00
18.63,0.01,0.64,0.70,-0.27,0.06,-1.40,-0.25,0.16,-0.25,0.00
18.644,0.01,0.64,0.70,-0.27,0.06,-1.40,0.37,-0.02,-0.60,0.00
18.645,0.01,0.64,0.70,-0.41,-0.14,-0.54,0.37,-0.02,-0.60,0.00
18.699,0.13,0.56,1.02,-0.41,-0.14,-0.54,0.37,-0.02,-0.60,0.00
18.71,0.13,0.56,1.02,-0.41,-0.14,-0.54,-0.59,0.17,0.30,0.00
18.71,0.13,0.56,1.02,0.70,-0.70,2.40,-0.59,0.17,0.30,0.00
18.766,-0.01,0.64,0.51,0.70,-0.70,2.40,-0.59,0.17,0.30,0.00
18.782,-0.01,0.64,0.51,0.70,-0.70,2.40,0.51,-0.13,-0.39,0.00
18.783,-0.01,0.64,0.51,-0.72,0.29,-1.43,0.51,-0.13,-0.39,0.00
18.828,0.12,0.58,0.95,-0.72,0.29,-1.43,0.51,-0.13,-0.39,0.00
18.842,0.12,0.58,0.95,-0.72,0.29,-1.43,-0.46,0.10,0.36,0.00
18.844,0.12,0.58,0.95,1.13,-0.50,1.68,-0.46,0.10,0.36,0.00
18.893,0.04,0.72,0.81,1.13,-0.50,1.68,-0.46,0.10,0.36,0.00
18.908,0.04,0.72,0.81,1.13,-0.50,1.68,0.24,-0.09,-0.19,0.00
18.909,0.04,0.72,0.81,0.19,0.34,0.53,0.24,-0.09,-0.19,0.00
18.966,0.05,0.62,0.69,0.19,0.34,0.53,0.24,-0.09,-0.19,0.00
19.0,0.05,0.62,0.69,0.19,0.34,0.53,0.16,-0.03,-0.12,0.00
19.003,0.05,0.62,0.69,-0.60,0.27,-1.41,0.16,-0.03,-0.12,0.00
19.024,0.15,0.54,0.84,-0.60,0.27,-1.41,0.16,-0.03,-0.12,0.00
19.04,0.15,0.54,0.84,-0.60,0.27,-1.41,-0.33,0.00,0.56,0.00
19.042,0.15,0.54,0.84,1.17,-0.96,-0.40,-0.33,0.00,0.56,0.00
19.089,0.07,0.60,0.66,1.17,-0.96,-0.40,-0.33,0.00,0.56,0.00
19.106,0.07,0.60,0.66,1.17,-0.96,-0.40,0.08,-0.10,0.33,0.00
19.107,0.07,0.60,0.66,-0.25,-0.22,-1.17,0.08,-0.10,0.33,0.00
19.182,0.08,0.59,0.82,-0.25,-0.22,-1.17,0.08,-0.10,0.33,0.00
19.183,0.08,0.59,0.82,-0.25,-0.22,-1.17,-0.13,0.15,-0.08,0.00
19.184,0.08,0.59,0.82,0.30,-0.36,0.85,-0.13,0.15,-0.08,0.00
19.224,0.07,0.61,0.69,0.30,-0.36,0.85,-0.13,0.15,-0.08,0.00
19.239,0.07,0.61,0.69,0.30,-0.36,0.85,0.16,-0.03,-0.06,0.00
19.241,0.07,0.61,0.69,-0.32,0.24,-1.02,0.16,-0.03,-0.06,0.00
19.293,0.14,0.58,0.73,-0.32,0.24,-1.02,0.16,-0.03,-0.06,0.00
19.304,0.14,0.58,0.73,-0.32,0.24,-1.02,0.02,-0.11,0.38,0.00
19.304,0.14,0.58,0.73,0.51,-0.43,-0.51,0.02,-0.11,0.38,0.00
19.353,0.11,0.60,0.83,0.51,-0.43,-0.51,0.02,-0.11,0.38,0.00
19.386,0.11,0.60,0.83,0.51,-0.43,-0.51,-0.24,0.08,0.09,0.00
19.39,0.11,0.60,0.83,-0.20,-0.10,0.00,-0.24,0.08,0.09,0.00
19.419,0.03,0.61,0.80,-0.20,-0.10,0.00,-0.24,0.08,0.09,0.00
19.436,0.03,0.61,0.80,-0.20,-0.10,0.00,-0.09,0.13,-0.38,0.00
19.436,0.03,0.61,0.80,-0.07,-0.29,-0.66,-0.09,0.13,-0.38,0.00
19.485,0.03,0.59,0.79,-0.07,-0.29,-0.66,-0.09,0.13,-0.38,0.00
19.502,0.03,0.59,0.79,-0.07,-0.29,-0.66,-0.07,0.06,-0.25,0.00
19.504,0.03,0.59,0.79,-0.04,-0.02,0.07,-0.07,0.06,-0.25,0.00
19.551,0.04,0.62,0.75,-0.04,-0.02,0.07,-0.07,0.06,-0.25,0.00
19.592,0.04,0.62,0.75,-0.04,-0.02,0.07,-0.04,-0.01,-0.15,0.00
19.601,0.04,0.62,0.75,-0.15,0.18,-0.42,-0.04,-0.01,-0.15,0.00
19.617,-0.00,0.63,0.92,-0.15,0.18,-0.42,-0.04,-0.01,-0.15,0.00
19.634,-0.00,0.63,0.92,-0.15,0.18,-0.42,-0.19,0.10,-0.39,0.00
19.635,-0.00,0.63,0.92,0.12,-0.11,0.41,-0.19,0.10,-0.39,0.00
19.683,0.05,0.59,0.99,0.12,-0.11,0.41,-0.19,0.10,-0.39,0.00
19.7,0.05,0.59,0.99,0.12,-0.11,0.41,-0.63,0.12,0.24,0.00
19.7,0.05,0.59,0.99,0.65,-0.06,3.15,-0.63,0.12,0.24,0.00
19.749,0.05,0.59,0.59,0.65,-0.06,3.15,-0.63,0.12,0.24,0.00
19.782,0.05,0.59,0.59,0.65,-0.06,3.15,-0.18,-0.07,0.40,0.00
19.786,0.05,0.59,0.59,-0.65,1.34,-3.98,-0.18,-0.07,0.40,0.00
19.817,-0.01,0.65,0.88,-0.65,1.34,-3.98,-0.18,-0.07,0.40,0.00
19.832,-0.01,0.65,0.88,-0.65,1.34,-3.98,1.22,-0.24,-1.02,0.00
19.833,-0.01,0.65,0.88,-0.42,0.41,0.84,1.22,-0.24,-1.02,0.00
19.881,0.08,0.58,0.76,-0.42,0.41,0.84,1.22,-0.24,-1.02,0.00
19.898,0.08,0.58,0.76,-0.42,0.41,0.84,-0.08,0.03,0.32,0.00
19.899,0.08,0.58,0.76,-0.67,0.68,-2.84,-0.08,0.03,0.32,0.00
19.947,-0.08,0.62,0.66,-0.67,0.68,-2.84,-0.08,0.03,0.32,0.00
19.978,-0.08,0.62,0.66,-0.67,0.68,-2.84,0.92,-0.02,-0.99,0.00
19.98,-0.08,0.62,0.66,0.60,-1.55,-1.96,0.92,-0.02,-0.99,0.00
20.013,0.07,0.45,0.92,0.60,-1.55,-1.96,0.92,-0.02,-0.99,0.00
20.03,0.07,0.45,0.92,0.60,-1.55,-1.96,-0.63,0.16,0.64,0.00
20.03,0.07,0.45,0.92,0.33,-1.64,1.34,-0.63,0.16,0.64,0.00
20.079,0.12,0.48,0.71,0.33,-1.64,1.34,-0.63,0.16,0.64,0.00
20.1,0.12,0.48,0.71,0.33,-1.64,1.34,-0.54,0.01,0.99,0.00
20.103,0.12,0.48,0.71,0.30,-0.14,-1.72,-0.54,0.01,0.99,0.00
20.16,0.03,0.62,0.89,0.30,-0.14,-1.72,-0.54,0.01,0.99,0.00
20.164,0.03,0.62,0.89,0.30,-0.14,-1.72,-0.06,-0.05,0.18,0.00
20.165,0.03,0.62,0.89,-0.52,0.59,0.63,-0.06,-0.05,0.18,0.00
20.212,0.03,0.71,1.13,-0.52,0.59,0.63,-0.06,-0.05,0.18,0.00
20.229,0.03,0.71,1.13,-0.52,0.59,0.63,-0.12,0.06,-0.62,0.00
20.231,0.03,0.71,1.13,-0.26,1.52,2.97,-0.12,0.06,-0.62,0.00
20.278,0.16,0.61,0.84,-0.26,1.52,2.97,-0.12,0.06,-0.62,0.00
20.294,0.16,0.61,0.84,-0.26,1.52,2.97,0.24,-0.33,0.12,0.00
20.294,0.16,0.61,0.84,0.84,0.42,0.20,0.24,-0.33,0.12,0.00
20.37,0.11,0.54,0.85,0.84,0.42,0.20,0.24,-0.33,0.12,0.00
20.375,0.11,0.54,0.85,0.84,0.42,0.20,-0.22,0.05,0.34,0.00
20.376,0.11,0.54,0.85,0.24,-0.19,-1.52,-0.22,0.05,0.34,0.00
20.409,-0.04,0.67,0.58,0.24,-0.19,-1.52,-0.22,0.05,0.34,0.00
20.426,-0.04,0.67,0.58,0.24,-0.19,-1.52,1.69,-0.38,-1.22,0.00
20.426,-0.04,0.67,0.58,-1.10,0.37,-1.90,1.69,-0.38,-1.22,0.00
20.475,0.17,0.54,0.97,-1.10,0.37,-1.90,1.69,-0.38,-1.22,0.00
20.492,0.17,0.54,0.97,-1.10,0.37,-1.90,-0.80,0.27,0.63,0.00
20.493,0.17,0.54,0.97,1.03,-0.59,1.74,-0.80,0.27,0.63,0.00
20.541,0.09,0.64,0.64,1.03,-0.59,1.74,-0.80,0.27,0.63,0.00
20.571,0.09,0.64,0.64,1.03,-0.59,1.74,0.55,-0.25,0.05,0.00
20.578,0.09,0.64,0.64,0.06,-0.02,-1.25,0.55,-0.25,0.05,0.00
20.609,0.08,0.59,0.73,0.06,-0.02,-1.25,0.55,-0.25,0.05,0.00
20.624,0.08,0.59,0.73,0.06,-0.02,-1.25,0.19,-0.07,0.10,0.00
20.624,0.08,0.59,0.73,0.14,-0.74,-0.48,0.19,-0.07,0.10,0.00
20.673,0.10,0.61,0.83,0.14,-0.74,-0.48,0.19,-0.07,0.10,0.00
20.69,0.10,0.61,0.83,0.14,-0.74,-0.48,0.01,-0.02,0.15,0.00
20.69,0.10,0.61,0.83,-0.08,-0.28,0.61,0.01,-0.02,0.15,0.00
20.739,0.08,0.58,0.76,-0.08,-0.28,0.61,0.01,-0.02,0.15,0.00
20.765,0.08,0.58,0.76,-0.08,-0.28,0.61,-0.35,0.23,0.01,0.00
20.767,0.08,0.58,0.76,-0.89,0.17,-1.12,-0.35,0.23,0.01,0.00
20.858,0.02,0.61,0.78,-0.89,0.17,-1.12,-0.35,0.23,0.01,0.00
20.859,0.02,0.61,0.78,-0.89,0.17,-1.12,0.47,0.15,-1.01,0.00
20.86,0.02,0.61,0.78,-0.32,-0.26,0.10,0.47,0.15,-1.01,0.00
20.871,0.05,0.58,0.77,-0.32,-0.26,0.10,0.47,0.15,-1.01,0.00
20.888,0.05,0.58,0.77,-0.32,-0.26,0.10,-0.27,0.11,0.21,0.00
20.889,0.05,0.58,0.77,-0.01,-0.44,-0.08,-0.27,0.11,0.21,0.00
20.937,-0.03,0.58,0.40,-0.01,-0.44,-0.08,-0.27,0.11,0.21,0.00
20.958,-0.03,0.58,0.40,-0.01,-0.44,-0.08,1.09,-0.16,-1.03,0.00
20.96,-0.03,0.58,0.40,-0.34,-0.67,-1.82,1.09,-0.16,-1.03,0.00
21.012,0.12,0.52,0.96,-0.34,-0.67,-1.82,1.09,-0.16,-1.03,0.00
21.02,0.12,0.52,0.96,-0.34,-0.67,-1.82,-1.11,0.22,0.71,0.00
21.02,0.12,0.52,0.96,1.01,-1.13,1.83,-1.11,0.22,0.71,0.00
21.069,-0.00,0.63,0.58,1.01,-1.13,1.83,-1.11,0.22,0.71,0.00
21.086,-0.00,0.63,0.58,1.01,-1.13,1.83,0.41,-0.20,-0.55,0.00
21.087,-0.00,0.63,0.58,-0.89,0.51,-0.98,0.41,-0.20,-0.55,0.00
21.135,0.04,0.55,0.97,-0.89,0.51,-0.98,0.41,-0.20,-0.55,0.00
21.136,0.04,0.55,0.97,-0.89,0.51,-0.98,0.41,-0.20,-0.55,0.00
21.137,0.04,0.55,0.97,-0.89,0.51,-0.98,0.41,-0.20,-0.55,0.00
21.137,0.04,0.55,0.97,-0.89,0.51,-0.98,0.41,-0.20,-0.55,0.00
21.138,0.04,0.55,0.97,-0.89,0.51,-0.98,0.41,-0.20,-0.55,0.00
21.138,0.04,0.55,0.97,-0.89,0.51,-0.98,0.41,-0.20,-0.55,0.00
21.145,0.11,0.54,0.95,-0.89,0.51,-0.98,0.41,-0.20,-0.55,0.00
21.152,0.11,0.54,0.95,-0.89,0.51,-0.98,-0.68,0.08,0.08,0.00
21.153,0.11,0.54,0.95,-0.89,0.51,-0.98,-0.68,0.08,0.08,0.00
21.153,0.11,0.54,0.95,-0.89,0.51,-0.98,-0.68,0.08,0.08,0.00
21.154,0.11,0.54,0.95,-0.89,0.51,-0.98,-0.68,0.08,0.08,0.00
21.154,0.11,0.54,0.95,-0.89,0.51,-0.98,-0.68,0.08,0.08,0.00
21.155,0.11,0.54,0.95,-0.89,0.51,-0.98,-0.68,0.08,0.08,0.00
21.156,0.11,0.54,0.95,-0.89,0.51,-0.98,-0.68,0.08,0.08,0.00
21.156,0.11,0.59,0.92,-0.89,0.51,-0.98,-0.68,0.08,0.08,0.00
21.164,0.11,0.59,0.92,-0.89,0.51,-0.98,-0.76,0.03,0.28,0.00
21.165,0.11,0.63,0.99,-0.89,0.51,-0.98,-0.76,0.03,0.28,0.00
21.172,0.11,0.63,0.99,-0.89,0.51,-0.98,-0.76,-0.03,0.40,0.00
21.176,0.14,0.65,1.03,-0.89,0.51,-0.98,-0.76,-0.03,0.40,0.00
21.183,0.14,0.65,1.03,-0.89,0.51,-0.98,-0.74,-0.10,0.52,0.00
21.187,0.19,0.63,1.13,-0.89,0.51,-0.98,-0.74,-0.10,0.52,0.00
21.192,0.19,0.63,1.13,-0.89,0.51,-0.98,-0.77,-0.16,0.68,0.00
21.195,0.24,0.62,1.24,-0.89,0.51,-0.98,-0.77,-0.16,0.68,0.00
21.211,0.24,0.62,1.24,-0.89,0.51,-0.98,-0.88,-0.19,0.93,0.00
21.212,0.24,0.62,1.24,1.80,0.50,4.04,-0.88,-0.19,0.93,0.00
21.213,0.29,0.59,1.24,1.80,0.50,4.04,-0.88,-0.19,0.93,0.00
21.214,0.29,0.59,1.24,1.80,0.50,4.04,-1.01,-0.22,1.23,0.00
21.215,0.33,0.57,1.20,1.80,0.50,4.04,-1.01,-0.22,1.23,0.00
21.231,0.33,0.57,1.20,1.80,0.50,4.04,-1.08,-0.26,1.52,0.00
21.233,0.33,0.57,1.08,1.80,0.50,4.04,-1.08,-0.26,1.52,0.00
21.234,0.33,0.57,1.08,1.80,0.50,4.04,-1.04,-0.33,1.71,0.00
21.237,0.30,0.59,0.87,1.80,0.50,4.04,-1.04,-0.33,1.71,0.00
21.242,0.30,0.59,0.87,1.80,0.50,4.04,-0.88,-0.42,1.72,0.00
21.245,0.28,0.62,0.86,1.80,0.50,4.04,-0.88,-0.42,1.72,0.00
21.253,0.28,0.62,0.86,1.80,0.50,4.04,-0.62,-0.53,1.58,0.00
21.255,0.21,0.65,0.84,1.80,0.50,4.04,-0.62,-0.53,1.58,0.00
21.262,0.21,0.65,0.84,1.80,0.50,4.04,-0.34,-0.60,1.29,0.00
21.262,0.21,0.65,0.84,0.74,1.24,-0.04,-0.34,-0.60,1.29,0.00
21.265,0.13,0.69,0.76,0.74,1.24,-0.04,-0.34,-0.60,1.29,0.00
21.271,0.13,0.69,0.76,0.74,1.24,-0.04,-0.02,-0.62,0.86,0.00
21.275,0.05,0.74,0.80,0.74,1.24,-0.04,-0.02,-0.62,0.86,0.00
21.281,0.05,0.74,0.80,0.74,1.24,-0.04,0.28,-0.58,0.34,0.00
21.294,-0.02,0.72,1.02,0.74,1.24,-0.04,0.28,-0.58,0.34,0.00
21.296,-0.02,0.72,1.02,0.74,1.24,-0.04,0.45,-0.44,-0.17,0.00
21.296,-0.02,0.72,1.02,0.74,1.24,-0.04,0.45,-0.44,-0.17,0.00
21.314,-0.02,0.72,1.02,0.74,1.24,-0.04,0.46,-0.24,-0.56,0.00
21.315,0.02,0.67,1.03,0.74,1.24,-0.04,0.46,-0.24,-0.56,0.00
21.316,0.02,0.67,1.03,0.74,1.24,-0.04,0.38,-0.07,-0.77,0.00
21.316,0.05,0.62,0.98,0.74,1.24,-0.04,0.38,-0.07,-0.77,0.00
21.322,0.05,0.62,0.98,0.74,1.24,-0.04,0.25,0.06,-0.81,0.00
21.323,0.05,0.62,0.98,-0.60,0.62,1.55,0.25,0.06,-0.81,0.00
21.325,0.10,0.58,0.94,-0.60,0.62,1.55,0.25,0.06,-0.81,0.00
21.331,0.10,0.58,0.94,-0.60,0.62,1.55,0.13,0.12,-0.71,0.00
21.335,0.14,0.56,0.83,-0.60,0.62,1.55,0.13,0.12,-0.71,0.00
21.345,0.14,0.56,0.83,-0.60,0.62,1.55,0.08,0.12,-0.51,0.00
21.345,0.13,0.56,0.75,-0.60,0.62,1.55,0.08,0.12,-0.51,0.00
21.352,0.13,0.56,0.75,-0.60,0.62,1.55,0.10,0.08,-0.35,0.00
21.355,0.09,0.57,0.66,-0.60,0.62,1.55,0.10,0.08,-0.35,0.00
21.361,0.09,0.57,0.66,-0.60,0.62,1.55,0.21,0.02,-0.29,0.00
21.365,0.05,0.60,0.81,-0.60,0.62,1.55,0.21,0.02,-0.29,0.00
21.372,0.05,0.60,0.81,-0.60,0.62,1.55,0.26,0.01,-0.30,0.00
21.375,0.03,0.61,0.80,-0.60,0.62,1.55,0.26,0.01,-0.30,0.00
21.382,0.03,0.61,0.80,-0.60,0.62,1.55,0.30,0.03,-0.37,0.00
21.382,0.03,0.61,0.80,-0.67,0.45,-0.23,0.30,0.03,-0.37,0.00
21.395,0.06,0.61,0.83,-0.67,0.45,-0.23,0.30,0.03,-0.37,0.00
21.396,0.06,0.61,0.83,-0.67,0.45,-0.23,0.30,0.06,-0.41,0.00
21.396,0.04,0.58,0.87,-0.67,0.45,-0.23,0.30,0.06,-0.41,0.00
21.419,0.04,0.58,0.87,-0.67,0.45,-0.23,0.24,0.10,-0.44,0.00
21.422,0.05,0.55,0.97,-0.67,0.45,-0.23,0.24,0.10,-0.44,0.00
21.423,0.05,0.55,0.97,-0.67,0.45,-0.23,0.08,0.17,-0.39,0.00
21.423,0.09,0.52,0.96,-0.67,0.45,-0.23,0.08,0.17,-0.39,0.00
21.424,0.09,0.52,0.96,-0.67,0.45,-0.23,-0.12,0.23,-0.24,0.00
21.425,0.09,0.51,0.87,-0.67,0.45,-0.23,-0.12,0.23,-0.24,0.00
21.432,0.09,0.51,0.87,-0.67,0.45,-0.23,-0.26,0.26,-0.10,0.00
21.436,0.06,0.51,0.84,-0.67,0.45,-0.23,-0.26,0.26,-0.10,0.00
21.442,0.06,0.51,0.84,-0.67,0.45,-0.23,-0.32,0.27,-0.02,0.00
21.442,0.06,0.51,0.84,-0.22,-0.40,0.14,-0.32,0.27,-0.02,0.00
21.445,0.08,0.52,0.71,-0.22,-0.40,0.14,-0.32,0.27,-0.02,0.00
21.452,0.08,0.52,0.71,-0.22,-0.40,0.14,-0.25,0.23,0.00,0.00
21.455,0.06,0.54,0.67,-0.22,-0.40,0.14,-0.25,0.23,0.00,0.00
21.461,0.06,0.54,0.67,-0.22,-0.40,0.14,-0.10,0.16,-0.05,0.00
21.465,0.03,0.54,0.72,-0.22,-0.40,0.14,-0.10,0.16,-0.05,0.00
21.472,0.03,0.54,0.72,-0.22,-0.40,0.14,0.03,0.12,-0.15,0.00
21.475,0.01,0.55,0.68,-0.22,-0.40,0.14,0.03,0.12,-0.15,0.00
21.482,0.01,0.55,0.68,-0.22,-0.40,0.14,0.15,0.10,-0.28,0.00
21.494,-0.01,0.57,0.61,-0.22,-0.40,0.14,0.15,0.10,-0.28,0.00
21.495,-0.01,0.57,0.61,-0.22,-0.40,0.14,0.32,0.07,-0.46,0.00
21.496,0.00,0.58,0.52,-0.22,-0.40,0.14,0.32,0.07,-0.46,0.00
21.513,0.00,0.58,0.52,-0.22,-0.40,0.14,0.56,0.02,-0.63,0.00
21.514,0.00,0.58,0.52,-0.62,-0.01,-2.92,0.56,0.02,-0.63,0.00
21.516,0.01,0.55,0.70,-0.62,-0.01,-2.92,0.56,0.02,-0.63,0.00
21.517,0.01,0.55,0.70,-0.62,-0.01,-2.92,0.64,0.01,-0.70,0.00
21.519,0.00,0.52,0.76,-0.62,-0.01,-2.92,0.64,0.01,-0.70,0.00
21.522,0.00,0.52,0.76,-0.62,-0.01,-2.92,0.57,0.05,-0.69,0.00
21.525,0.00,0.52,0.76,-0.62,-0.01,-2.92,0.57,0.05,-0.69,0.00
21.533,0.00,0.52,0.76,-0.62,-0.01,-2.92,0.42,0.10,-0.66,0.00
21.535,0.02,0.50,0.80,-0.62,-0.01,-2.92,0.42,0.10,-0.66,0.00
21.544,0.02,0.50,0.80,-0.62,-0.01,-2.92,0.22,0.15,-0.56,0.00
21.545,0.03,0.48,0.87,-0.62,-0.01,-2.92,0.22,0.15,-0.56,0.00
21.552,0.03,0.48,0.87,-0.62,-0.01,-2.92,-0.03,0.21,-0.40,0.00
21.555,0.05,0.48,0.80,-0.62,-0.01,-2.92,-0.03,0.21,-0.40,0.00
21.562,0.05,0.48,0.80,-0.62,-0.01,-2.92,-0.21,0.23,-0.23,0.00
21.562,0.05,0.48,0.80,0.09,-0.96,-0.14,-0.21,0.23,-0.23,0.00
21.566,0.08,0.50,0.76,0.09,-0.96,-0.14,-0.21,0.23,-0.23,0.00
21.572,0.08,0.50,0.76,0.09,-0.96,-0.14,-0.29,0.21,-0.05,0.00
21.575,0.05,0.53,0.71,0.09,-0.96,-0.14,-0.29,0.21,-0.05,0.00
21.583,0.05,0.53,0.71,0.09,-0.96,-0.14,-0.24,0.16,0.04,0.00
21.585,0.03,0.55,0.72,0.09,-0.96,-0.14,-0.24,0.16,0.04,0.00
21.592,0.03,0.55,0.72,0.09,-0.96,-0.14,-0.13,0.11,0.02,0.00
21.595,0.01,0.56,0.72,0.09,-0.96,-0.14,-0.13,0.11,0.02,0.00
21.607,0.01,0.56,0.72,0.09,-0.96,-0.14,-0.02,0.08,-0.06,0.00
21.609,0.01,0.55,0.81,0.09,-0.96,-0.14,-0.02,0.08,-0.06,0.00
21.612,0.01,0.55,0.81,0.09,-0.96,-0.14,0.00,0.07,-0.14,0.00
21.626,0.11,0.47,0.80,0.09,-0.96,-0.14,0.00,0.07,-0.14,0.00
21.628,0.11,0.47,0.80,0.09,-0.96,-0.14,-0.08,0.07,0.02,0.00
21.629,0.11,0.47,0.80,0.73,-1.05,-0.18,-0.08,0.07,0.02,0.00
21.63,0.11,0.47,0.80,0.73,-1.05,-0.18,-0.08,0.07,0.02,0.00
21.632,0.11,0.47,0.80,0.73,-1.05,-0.18,-0.21,0.05,0.27,0.00
21.635,0.20,0.44,0.88,0.73,-1.05,-0.18,-0.21,0.05,0.27,0.00
21.642,0.20,0.44,0.88,0.73,-1.05,-0.18,-0.40,0.01,0.63,0.00
21.645,0.18,0.42,1.11,0.73,-1.05,-0.18,-0.40,0.01,0.63,0.00
21.652,0.18,0.42,1.11,0.73,-1.05,-0.18,-0.75,0.06,1.07,0.00
21.655,0.16,0.38,1.12,0.73,-1.05,-0.18,-0.75,0.06,1.07,0.00
21.662,0.16,0.38,1.12,0.73,-1.05,-0.18,-1.14,0.15,1.41,0.00
21.665,0.16,0.40,1.18,0.73,-1.05,-0.18,-1.14,0.15,1.41,0.00
21.672,0.16,0.40,1.18,0.73,-1.05,-0.18,-1.45,0.25,1.66,0.00
21.675,0.13,0.44,1.18,0.73,-1.05,-0.18,-1.45,0.25,1.66,0.00
21.691,0.13,0.44,1.18,0.73,-1.05,-0.18,-1.62,0.34,1.75,0.00
21.692,0.13,0.44,1.18,0.47,-0.61,3.08,-1.62,0.34,1.75,0.00
21.693,0.12,0.45,1.09,0.47,-0.61,3.08,-1.62,0.34,1.75,0.00
21.693,0.12,0.45,1.09,0.47,-0.61,3.08,-1.62,0.36,1.66,0.00
21.695,0.09,0.47,1.00,0.47,-0.61,3.08,-1.62,0.36,1.66,0.00
21.711,0.09,0.47,1.00,0.47,-0.61,3.08,-1.47,0.36,1.47,0.00
21.712,0.06,0.49,0.92,0.47,-0.61,3.08,-1.47,0.36,1.47,0.00
21.713,0.06,0.49,0.92,0.47,-0.61,3.08,-1.21,0.32,1.14,0.00
21.717,0.05,0.50,0.85,0.47,-0.61,3.08,-1.21,0.32,1.14,0.00
21.722,0.05,0.50,0.85,0.47,-0.61,3.08,-0.83,0.24,0.72,0.00
21.725,0.04,0.53,0.78,0.47,-0.61,3.08,-0.83,0.24,0.72,0.00
21.732,0.04,0.53,0.78,0.47,-0.61,3.08,-0.46,0.16,0.32,0.00
21.735,0.03,0.55,0.73,0.47,-0.61,3.08,-0.46,0.16,0.32,0.00
21.744,0.03,0.55,0.73,0.47,-0.61,3.08,-0.11,0.07,-0.05,0.00
21.745,0.03,0.55,0.73,-0.41,0.83,-1.45,-0.11,0.07,-0.05,0.00
21.745,0.04,0.56,0.73,-0.41,0.83,-1.45,-0.11,0.07,-0.05,0.00
21.752,0.04,0.56,0.73,-0.41,0.83,-1.45,0.19,-0.01,-0.33,0.00
21.755,0.03,0.58,0.78,-0.41,0.83,-1.45,0.19,-0.01,-0.33,0.00
21.762,0.03,0.58,0.78,-0.41,0.83,-1.45,0.42,-0.07,-0.55,0.00
21.766,0.01,0.58,0.88,-0.41,0.83,-1.45,0.42,-0.07,-0.55,0.00
21.772,0.01,0.58,0.88,-0.41,0.83,-1.45,0.53,-0.06,-0.68,0.00
21.775,-0.03,0.58,0.88,-0.41,0.83,-1.45,0.53,-0.06,-0.68,0.00
21.789,-0.03,0.58,0.88,-0.41,0.83,-1.45,0.56,-0.01,-0.79,0.00
21.791,-0.02,0.57,0.92,-0.41,0.83,-1.45,0.56,-0.01,-0.79,0.00
21.792,-0.02,0.57,0.92,-0.41,0.83,-1.45,0.53,0.08,-0.85,0.00
21.795,-0.03,0.55,0.95,-0.41,0.83,-1.45,0.53,0.08,-0.85,0.00
21.809,-0.03,0.55,0.95,-0.41,0.83,-1.45,0.43,0.16,-0.86,0.00
21.811,-0.03,0.55,0.95,-0.80,0.45,0.90,0.43,0.16,-0.86,0.00
21.812,-0.04,0.53,0.90,-0.80,0.45,0.90,0.43,0.16,-0.86,0.00
21.813,-0.04,0.53,0.90,-0.80,0.45,0.90,0.33,0.22,-0.88,0.00
21.815,-0.01,0.53,0.79,-0.80,0.45,0.90,0.33,0.22,-0.88,0.00
21.822,-0.01,0.53,0.79,-0.80,0.45,0.90,0.32,0.23,-0.87,0.00
21.825,-0.01,0.54,0.80,-0.80,0.45,0.90,0.32,0.23,-0.87,0.00
21.832,-0.01,0.54,0.80,-0.80,0.45,0.90,0.34,0.20,-0.84,0.00
21.835,-0.01,0.55,0.73,-0.80,0.45,0.90,0.34,0.20,-0.84,0.00
21.841,-0.01,0.55,0.73,-0.80,0.45,0.90,0.41,0.16,-0.82,0.00
21.846,-0.01,0.54,0.74,-0.80,0.45,0.90,0.41,0.16,-0.82,0.00
21.852,-0.01,0.54,0.74,-0.80,0.45,0.90,0.48,0.12,-0.81,0.00
21.855,0.01,0.54,0.69,-0.80,0.45,0.90,0.48,0.12,-0.81,0.00
21.863,0.01,0.54,0.69,-0.80,0.45,0.90,0.56,0.08,-0.74,0.00
21.864,0.01,0.54,0.69,-0.11,0.08,-1.53,0.56,0.08,-0.74,0.00
21.865,0.03,0.53,0.71,-0.11,0.08,-1.53,0.56,0.08,-0.74,0.00
21.871,0.03,0.53,0.71,-0.11,0.08,-1.53,0.60,0.02,-0.65,0.00
21.875,0.05,0.52,0.74,-0.11,0.08,-1.53,0.60,0.02,-0.65,0.00
21.881,0.05,0.52,0.74,-0.11,0.08,-1.53,0.58,-0.03,-0.51,0.00
21.885,0.05,0.50,0.78,-0.11,0.08,-1.53,0.58,-0.03,-0.51,0.00
21.892,0.05,0.50,0.78,-0.11,0.08,-1.53,0.49,-0.05,-0.32,0.00
21.904,0.06,0.47,0.81,-0.11,0.08,-1.53,0.49,-0.05,-0.32,0.00
21.906,0.06,0.47,0.81,-0.11,0.08,-1.53,0.34,-0.05,-0.13,0.00
21.906,0.07,0.44,0.88,-0.11,0.08,-1.53,0.34,-0.05,-0.13,0.00
21.922,0.07,0.44,0.88,-0.11,0.08,-1.53,0.09,-0.01,0.10,0.00
21.923,0.04,0.41,0.99,-0.11,0.08,-1.53,0.09,-0.01,0.10,0.00
21.924,0.04,0.41,0.99,-0.11,0.08,-1.53,-0.24,0.08,0.33,0.00
21.925,0.04,0.41,0.99,0.13,-1.25,1.40,-0.24,0.08,0.33,0.00
21.925,0.02,0.41,0.98,0.13,-1.25,1.40,-0.24,0.08,0.33,0.00
21.932,0.02,0.41,0.98,0.13,-1.25,1.40,-0.54,0.18,0.47,0.00
21.935,-0.02,0.46,0.93,0.13,-1.25,1.40,-0.54,0.18,0.47,0.00
21.945,-0.02,0.46,0.93,0.13,-1.25,1.40,-0.70,0.26,0.43,0.00
21.947,-0.03,0.51,0.85,0.13,-1.25,1.40,-0.70,0.26,0.43,0.00
21.952,-0.03,0.51,0.85,0.13,-1.25,1.40,-0.65,0.27,0.27,0.00
21.955,-0.02,0.53,0.76,0.13,-1.25,1.40,-0.65,0.27,0.27,0.00
21.962,-0.02,0.53,0.76,0.13,-1.25,1.40,-0.46,0.21,0.05,0.00
21.965,0.04,0.53,0.77,0.13,-1.25,1.40,-0.46,0.21,0.05,0.00
21.971,0.04,0.53,0.77,0.13,-1.25,1.40,-0.25,0.13,-0.06,0.00
21.975,0.12,0.52,0.76,0.13,-1.25,1.40,-0.25,0.13,-0.06,0.00
21.982,0.12,0.52,0.76,0.13,-1.25,1.40,-0.06,-0.02,-0.00,0.00
21.983,0.12,0.52,0.76,0.98,0.05,-1.00,-0.06,-0.02,-0.00,0.00
21.985,0.16,0.53,0.82,0.98,0.05,-1.00,-0.06,-0.02,-0.00,0.00
21.992,0.16,0.53,0.82,0.98,0.05,-1.00,0.05,-0.17,0.20,0.00
22.007,0.16,0.55,0.86,0.98,0.05,-1.00,0.05,-0.17,0.20,0.00
22.008,0.16,0.55,0.86,0.98,0.05,-1.00,0.12,-0.30,0.39,0.00
22.009,0.16,0.56,0.81,0.98,0.05,-1.00,0.12,-0.30,0.39,0.00
22.012,0.16,0.56,0.81,0.98,0.05,-1.00,0.19,-0.42,0.52,0.00
22.029,0.15,0.57,0.89,0.98,0.05,-1.00,0.19,-0.42,0.52,0.00
22.031,0.15,0.57,0.89,0.98,0.05,-1.00,0.22,-0.48,0.61,0.00
22.032,0.16,0.55,0.83,0.98,0.05,-1.00,0.22,-0.48,0.61,0.00
22.033,0.16,0.55,0.83,0.98,0.05,-1.00,0.25,-0.51,0.67,0.00
22.037,0.20,0.55,0.85,0.98,0.05,-1.00,0.25,-0.51,0.67,0.00
22.044,0.20,0.55,0.85,0.98,0.05,-1.00,0.25,-0.55,0.75,0.00
22.045,0.20,0.55,0.85,1.25,0.25,0.02,0.25,-0.55,0.75,0.00
22.046,0.21,0.55,0.92,1.25,0.25,0.02,0.25,-0.55,0.75,0.00
22.051,0.21,0.55,0.92,1.25,0.25,0.02,0.21,-0.55,0.88,0.00
22.057,0.19,0.55,0.89,1.25,0.25,0.02,0.21,-0.55,0.88,0.00
22.062,0.19,0.55,0.89,1.25,0.25,0.02,0.17,-0.54,0.93,0.00
22.065,0.17,0.56,0.88,1.25,0.25,0.02,0.17,-0.54,0.93,0.00
22.071,0.17,0.56,0.88,1.25,0.25,0.02,0.15,-0.52,0.87,0.00
22.075,0.14,0.58,0.80,1.25,0.25,0.02,0.15,-0.52,0.87,0.00
22.087,0.14,0.58,0.80,1.25,0.25,0.02,0.20,-0.51,0.73,0.00
22.088,0.13,0.59,0.84,1.25,0.25,0.02,0.20,-0.51,0.73,0.00
22.092,0.13,0.59,0.84,1.25,0.25,0.02,0.25,-0.48,0.52,0.00
22.113,0.12,0.59,0.85,1.25,0.25,0.02,0.25,-0.48,0.52,0.00
22.114,0.12,0.59,0.85,1.25,0.25,0.02,0.28,-0.44,0.33,0.00
22.115,0.12,0.59,0.85,0.02,0.55,0.11,0.28,-0.44,0.33,0.00
22.115,0.12,0.59,0.86,0.02,0.55,0.11,0.28,-0.44,0.33,0.00
22.115,0.12,0.59,0.86,0.02,0.55,0.11,0.28,-0.38,0.17,0.00
22.116,0.12,0.58,0.89,0.02,0.55,0.11,0.28,-0.38,0.17,0.00
22.135,0.12,0.58,0.89,0.02,0.55,0.11,0.25,-0.32,0.07,0.00
22.136,0.12,0.58,0.89,0.02,0.55,0.11,0.25,-0.32,0.07,0.00
22.136,0.12,0.58,0.89,0.02,0.55,0.11,0.25,-0.32,0.07,0.00
22.136,0.12,0.58,0.89,0.02,0.55,0.11,0.25,-0.32,0.07,0.00
22.137,0.10,0.54,1.06,0.02,0.55,0.11,0.25,-0.32,0.07,0.00
22.137,0.10,0.54,1.06,0.02,0.55,0.11,0.25,-0.32,0.07,0.00
22.146,0.10,0.56,1.01,0.02,0.55,0.11,0.25,-0.32,0.07,0.00
22.148,0.10,0.56,1.01,0.02,0.55,0.11,0.08,-0.20,0.02,0.00
22.153,0.10,0.56,1.01,0.02,0.55,0.11,-0.08,-0.09,-0.00,0.00
22.156,0.06,0.57,0.93,0.02,0.55,0.11,-0.08,-0.09,-0.00,0.00
22.165,0.06,0.57,0.93,0.02,0.55,0.11,-0.15,-0.00,-0.08,0.00
22.165,0.06,0.57,0.93,-0.51,0.42,0.84,-0.15,-0.00,-0.08,0.00
22.183,0.03,0.59,0.77,-0.51,0.42,0.84,-0.15,-0.00,-0.08,0.00
22.184,0.03,0.59,0.77,-0.51,0.42,0.84,-0.07,0.03,-0.26,0.00
22.185,0.01,0.61,0.70,-0.51,0.42,0.84,-0.07,0.03,-0.26,0.00
22.185,0.01,0.61,0.70,-0.51,0.42,0.84,0.11,0.02,-0.49,0.00
22.197,-0.01,0.64,0.66,-0.51,0.42,0.84,0.11,0.02,-0.49,0.00
22.199,-0.01,0.64,0.66,-0.51,0.42,0.84,0.35,-0.00,-0.75,0.00
22.199,0.03,0.63,0.67,-0.51,0.42,0.84,0.35,-0.00,-0.75,0.00
22.208,0.03,0.63,0.67,-0.51,0.42,0.84,0.57,-0.05,-0.91,0.00
22.209,0.10,0.61,0.80,-0.51,0.42,0.84,0.57,-0.05,-0.91,0.00
22.214,0.10,0.61,0.80,-0.51,0.42,0.84,0.64,-0.09,-0.88,0.00
22.218,0.14,0.56,0.89,-0.51,0.42,0.84,0.64,-0.09,-0.88,0.00
22.228,0.14,0.56,0.89,-0.51,0.42,0.84,0.53,-0.10,-0.66,0.00
22.228,0.14,0.56,0.89,0.46,-0.09,0.72,0.53,-0.10,-0.66,0.00
22.229,0.16,0.50,0.94,0.46,-0.09,0.72,0.53,-0.10,-0.66,0.00
22.234,0.16,0.50,0.94,0.46,-0.09,0.72,0.28,-0.07,-0.34,0.00
22.238,0.18,0.47,0.94,0.46,-0.09,0.72,0.28,-0.07,-0.34,0.00
22.25,0.18,0.47,0.94,0.46,-0.09,0.72,0.04,-0.06,0.02,0.00
22.251,0.19,0.45,0.85,0.46,-0.09,0.72,0.04,-0.06,0.02,0.00
22.253,0.19,0.45,0.85,0.46,-0.09,0.72,-0.15,-0.05,0.35,0.00
22.262,0.15,0.49,0.76,0.46,-0.09,0.72,-0.15,-0.05,0.35,0.00
22.263,0.15,0.49,0.76,0.46,-0.09,0.72,-0.15,-0.05,0.35,0.00
22.278,0.15,0.49,0.76,0.46,-0.09,0.72,-0.15,-0.05,0.35,0.00
22.279,0.15,0.49,0.76,0.46,-0.09,0.72,-0.20,-0.07,0.55,0.00
22.279,0.11,0.51,0.76,0.46,-0.09,0.72,-0.20,-0.07,0.55,0.00
22.282,0.11,0.51,0.76,0.46,-0.09,0.72,-0.16,-0.08,0.50,0.00
22.282,0.11,0.51,0.76,-0.01,-0.39,-0.71,-0.16,-0.08,0.50,0.00
22.285,0.09,0.54,0.69,-0.01,-0.39,-0.71,-0.16,-0.08,0.50,0.00
22.295,0.09,0.54,0.69,-0.01,-0.39,-0.71,-0.05,-0.09,0.35,0.00
22.296,0.04,0.57,0.67,-0.01,-0.39,-0.71,-0.05,-0.09,0.35,0.00
22.303,0.04,0.57,0.67,-0.01,-0.39,-0.71,0.11,-0.08,0.12,0.00
22.305,-0.01,0.59,0.66,-0.01,-0.39,-0.71,0.11,-0.08,0.12,0.00
22.328,-0.01,0.59,0.66,-0.01,-0.39,-0.71,0.29,-0.06,-0.20,0.00
22.33,0.01,0.62,0.68,-0.01,-0.39,-0.71,0.29,-0.06,-0.20,0.00
22.333,0.01,0.62,0.68,-0.01,-0.39,-0.71,0.47,-0.05,-0.51,0.00
22.333,-0.00,0.60,0.71,-0.01,-0.39,-0.71,0.47,-0.05,-0.51,0.00
22.339,-0.00,0.60,0.71,-0.01,-0.39,-0.71,0.57,-0.01,-0.73,0.00
22.341,0.03,0.54,0.67,-0.01,-0.39,-0.71,0.57,-0.01,-0.73,0.00
22.367,0.06,0.53,0.69,-0.01,-0.39,-0.71,0.57,-0.01,-0.73,0.00
22.368,0.06,0.53,0.69,-0.01,-0.39,-0.71,0.57,-0.01,-0.73,0.00
22.369,0.06,0.53,0.69,-0.01,-0.39,-0.71,0.57,-0.01,-0.73,0.00
22.369,0.06,0.53,0.69,-0.25,-0.54,-1.14,0.57,-0.01,-0.73,0.00
22.37,0.06,0.53,0.69,-0.25,-0.54,-1.14,0.54,0.00,-0.76,0.00
22.37,0.06,0.53,0.69,-0.25,-0.54,-1.14,0.54,0.00,-0.76,0.00
22.37,0.06,0.53,0.69,-0.25,-0.54,-1.14,0.54,0.00,-0.76,0.00
22.371,0.08,0.52,0.82,-0.25,-0.54,-1.14,0.54,0.00,-0.76,0.00
22.374,0.08,0.52,0.82,-0.25,-0.54,-1.14,0.32,0.03,-0.51,0.00
22.382,0.08,0.54,0.91,-0.25,-0.54,-1.14,0.32,0.03,-0.51,0.00
22.383,0.08,0.54,0.91,-0.25,-0.54,-1.14,0.07,0.10,-0.30,0.00
22.386,0.08,0.54,0.91,-0.25,-0.54,-1.14,0.07,0.10,-0.30,0.00
22.408,0.08,0.54,0.91,-0.25,-0.54,-1.14,-0.15,0.17,-0.12,0.00
22.409,0.07,0.56,0.95,-0.25,-0.54,-1.14,-0.15,0.17,-0.12,0.00
22.41,0.07,0.56,0.95,-0.25,-0.54,-1.14,-0.33,0.22,-0.02,0.00
22.41,0.07,0.56,0.95,-0.06,-0.15,1.29,-0.33,0.22,-0.02,0.00
22.41,0.08,0.56,0.93,-0.06,-0.15,1.29,-0.33,0.22,-0.02,0.00
22.422,0.08,0.56,0.93,-0.06,-0.15,1.29,-0.43,0.24,0.06,0.00
22.422,0.08,0.56,0.93,-0.06,-0.15,1.29,-0.43,0.24,0.06,0.00
22.422,0.08,0.56,0.93,-0.06,-0.15,1.29,-0.43,0.24,0.06,0.00
22.442,0.16,0.55,0.96,-0.06,-0.15,1.29,-0.43,0.24,0.06,0.00
22.443,0.16,0.55,0.96,-0.06,-0.15,1.29,-0.43,0.24,0.06,0.00
22.443,0.16,0.55,0.96,-0.06,-0.15,1.29,-0.50,0.21,0.22,0.00
22.444,0.18,0.53,0.92,-0.06,-0.15,1.29,-0.50,0.21,0.22,0.00
22.444,0.18,0.53,0.92,-0.06,-0.15,1.29,-0.53,0.17,0.44,0.00
22.445,0.18,0.52,0.91,-0.06,-0.15,1.29,-0.53,0.17,0.44,0.00
22.451,0.18,0.52,0.91,-0.06,-0.15,1.29,-0.54,0.11,0.63,0.00
22.455,0.18,0.53,0.89,-0.06,-0.15,1.29,-0.54,0.11,0.63,0.00
22.462,0.18,0.53,0.89,-0.06,-0.15,1.29,-0.51,0.06,0.75,0.00
22.463,0.18,0.53,0.89,0.81,-0.13,0.54,-0.51,0.06,0.75,0.00
22.465,0.17,0.56,0.88,0.81,-0.13,0.54,-0.51,0.06,0.75,0.00
22.476,0.17,0.56,0.88,0.81,-0.13,0.54,-0.44,0.00,0.79,0.00
22.477,0.13,0.58,0.91,0.81,-0.13,0.54,-0.44,0.00,0.79,0.00
22.481,0.13,0.58,0.91,0.81,-0.13,0.54,-0.37,-0.01,0.74,0.00
22.485,0.11,0.58,0.93,0.81,-0.13,0.54,-0.37,-0.01,0.74,0.00
22.492,0.11,0.58,0.93,0.81,-0.13,0.54,-0.30,-0.01,0.62,0.00
22.495,0.09,0.58,0.93,0.81,-0.13,0.54,-0.30,-0.01,0.62,0.00
22.505,0.09,0.58,0.93,0.81,-0.13,0.54,-0.25,0.02,0.47,0.00
22.523,0.08,0.56,0.87,0.81,-0.13,0.54,-0.25,0.02,0.47,0.00
22.527,0.08,0.56,0.87,0.81,-0.13,0.54,-0.20,0.04,0.30,0.00
22.528,0.08,0.56,0.87,0.81,-0.13,0.54,-0.20,0.04,0.30,0.00
22.528,0.08,0.56,0.87,-0.31,0.27,0.30,-0.20,0.04,0.30,0.00
22.534,0.08,0.56,0.87,-0.31,0.27,0.30,-0.20,0.04,0.30,0.00
22.536,0.08,0.56,0.87,-0.31,0.27,0.30,-0.20,0.04,0.30,0.00
22.572,0.02,0.61,0.67,-0.31,0.27,0.30,-0.20,0.04,0.30,0.00
22.607,0.02,0.61,0.67,-0.31,0.27,0.30,0.66,-0.04,-0.70,0.00
22.608,0.02,0.61,0.67,-0.59,0.64,-0.82,0.66,-0.04,-0.70,0.00
22.639,0.07,0.63,0.76,-0.59,0.64,-0.82,0.66,-0.04,-0.70,0.00
22.665,0.07,0.63,0.76,-0.59,0.64,-0.82,0.59,-0.17,-0.29,0.00
22.666,0.07,0.63,0.76,0.33,0.61,-0.48,0.59,-0.17,-0.29,0.00
22.72,0.15,0.60,0.77,0.33,0.61,-0.48,0.59,-0.17,-0.29,0.00
22.732,0.15,0.60,0.77,0.33,0.61,-0.48,0.28,-0.23,0.40,0.00
22.734,0.15,0.60,0.77,0.36,-0.49,-0.81,0.28,-0.23,0.40,0.00
22.772,0.06,0.65,0.69,0.36,-0.49,-0.81,0.28,-0.23,0.40,0.00
22.833,0.06,0.65,0.69,0.36,-0.49,-0.81,0.53,-0.04,-0.55,0.00
22.839,0.06,0.65,0.69,-0.17,-0.07,-0.56,0.53,-0.04,-0.55,0.00
22.841,0.07,0.71,0.84,-0.17,-0.07,-0.56,0.53,-0.04,-0.55,0.00
22.866,0.07,0.71,0.84,-0.17,-0.07,-0.56,-0.15,0.05,0.10,0.00
22.87,0.07,0.71,0.84,0.92,-0.23,1.95,-0.15,0.05,0.10,0.00
22.905,0.12,0.65,0.75,0.92,-0.23,1.95,-0.15,0.05,0.10,0.00
22.937,0.12,0.65,0.75,0.92,-0.23,1.95,0.00,-0.03,0.20,0.00
22.942,0.12,0.65,0.75,-0.56,0.60,-0.64,0.00,-0.03,0.20,0.00
22.968,0.03,0.66,0.70,-0.56,0.60,-0.64,0.00,-0.03,0.20,0.00
22.994,0.03,0.66,0.70,-0.56,0.60,-0.64,0.40,0.03,-0.56,0.00
22.995,0.03,0.66,0.70,-0.42,-0.04,-0.40,0.40,0.03,-0.56,0.00
23.034,0.05,0.67,0.73,-0.42,-0.04,-0.40,0.40,0.03,-0.56,0.00
23.061,0.05,0.67,0.73,-0.42,-0.04,-0.40,0.13,0.11,-0.19,0.00
23.063,0.05,0.67,0.73,-0.71,0.43,-1.04,0.13,0.11,-0.19,0.00
23.105,0.02,0.63,0.69,-0.71,0.43,-1.04,0.13,0.11,-0.19,0.00
23.137,0.02,0.63,0.69,-0.71,0.43,-1.04,0.11,0.15,-0.35,0.00
23.139,0.02,0.63,0.69,-0.29,-0.87,0.04,0.11,0.15,-0.35,0.00
23.166,0.06,0.65,0.66,-0.29,-0.87,0.04,0.11,0.15,-0.35,0.00
23.196,0.06,0.65,0.66,-0.29,-0.87,0.04,-0.06,0.08,0.05,0.00
23.199,0.06,0.65,0.66,0.22,-0.15,0.38,-0.06,0.08,0.05,0.00
23.237,0.12,0.63,0.77,0.22,-0.15,0.38,-0.06,0.08,0.05,0.00
23.259,0.12,0.63,0.77,0.22,-0.15,0.38,-0.31,-0.02,0.65,0.00
23.262,0.12,0.63,0.77,0.45,-0.20,-0.60,-0.31,-0.02,0.65,0.00
23.311,0.05,0.67,0.62,0.45,-0.20,-0.60,-0.31,-0.02,0.65,0.00
23.324,0.05,0.67,0.62,0.45,-0.20,-0.60,0.42,-0.18,-0.05,0.00
23.325,0.05,0.67,0.62,-0.22,0.17,0.09,0.42,-0.18,-0.05,0.00
23.363,0.10,0.65,0.77,-0.22,0.17,0.09,0.42,-0.18,-0.05,0.00
23.39,0.10,0.65,0.77,-0.22,0.17,0.09,0.00,-0.07,0.10,0.00
23.391,0.10,0.65,0.77,0.13,0.35,-0.16,0.00,-0.07,0.10,0.00
23.431,0.07,0.66,0.79,0.13,0.35,-0.16,0.00,-0.07,0.10,0.00
23.457,0.07,0.66,0.79,0.13,0.35,-0.16,-0.09,0.02,-0.11,0.00
23.459,0.07,0.66,0.79,-0.65,0.13,-0.53,-0.09,0.02,-0.11,0.00
23.508,0.03,0.67,0.68,-0.65,0.13,-0.53,-0.09,0.02,-0.11,0.00
23.525,0.03,0.67,0.68,-0.65,0.13,-0.53,0.21,-0.01,-0.47,0.00
23.534,0.03,0.67,0.68,0.22,-0.47,-0.44,0.21,-0.01,-0.47,0.00
23.561,0.13,0.63,0.88,0.22,-0.47,-0.44,0.21,-0.01,-0.47,0.00
23.588,0.13,0.63,0.88,0.22,-0.47,-0.44,-0.63,0.14,0.70,0.00
23.589,0.13,0.63,0.88,0.55,-0.07,1.23,-0.63,0.14,0.70,0.00
23.627,0.11,0.67,0.63,0.55,-0.07,1.23,-0.63,0.14,0.70,0.00
23.656,0.11,0.67,0.63,0.55,-0.07,1.23,0.36,-0.18,0.04,0.00
23.657,0.11,0.67,0.63,-0.15,0.47,-0.20,0.36,-0.18,0.04,0.00
23.706,0.13,0.60,0.83,-0.15,0.47,-0.20,0.36,-0.18,0.04,0.00
23.734,0.13,0.60,0.83,-0.15,0.47,-0.20,-0.26,0.07,0.35,0.00
23.739,0.13,0.60,0.83,0.32,-0.29,-0.55,-0.26,0.07,0.35,0.00
23.761,0.07,0.67,0.68,0.32,-0.29,-0.55,-0.26,0.07,0.35,0.00
23.786,0.07,0.67,0.68,0.32,-0.29,-0.55,0.01,0.05,-0.01,0.00
23.787,0.07,0.67,0.68,-0.15,-0.32,0.74,0.01,0.05,-0.01,0.00
23.825,0.11,0.55,0.84,-0.15,-0.32,0.74,0.01,0.05,-0.01,0.00
23.855,0.11,0.55,0.84,-0.15,-0.32,0.74,-0.58,0.26,0.30,0.00
23.856,0.11,0.55,0.84,-0.34,0.13,-1.89,-0.58,0.26,0.30,0.00
23.904,0.04,0.64,0.83,-0.34,0.13,-1.89,-0.58,0.26,0.30,0.00
23.934,0.04,0.64,0.83,-0.34,0.13,-1.89,0.05,0.05,-0.34,0.00
23.937,0.04,0.64,0.83,0.59,-0.64,1.21,0.05,0.05,-0.34,0.00
23.959,0.08,0.67,0.73,0.59,-0.64,1.21,0.05,0.05,-0.34,0.00
23.984,0.08,0.67,0.73,0.59,-0.64,1.21,0.10,-0.07,-0.08,0.00
23.985,0.08,0.67,0.73,-0.76,1.25,-1.17,0.10,-0.07,-0.08,0.00
24.023,0.06,0.69,0.71,-0.76,1.25,-1.17,0.10,-0.07,-0.08,0.00
24.051,0.06,0.69,0.71,-0.76,1.25,-1.17,0.57,-0.20,-0.31,0.00
24.053,0.06,0.69,0.71,0.70,-0.42,-0.69,0.57,-0.20,-0.31,0.00
24.112,0.14,0.63,0.78,0.70,-0.42,-0.69,0.57,-0.20,-0.31,0.00
24.123,0.14,0.63,0.78,0.70,-0.42,-0.69,-0.13,-0.11,0.58,0.00
24.126,0.14,0.63,0.78,0.20,-0.56,1.13,-0.13,-0.11,0.58,0.00
24.158,0.08,0.60,0.92,0.20,-0.56,1.13,-0.13,-0.11,0.58,0.00
24.204,0.08,0.60,0.92,0.20,-0.56,1.13,-0.94,0.35,0.34,0.00
24.206,0.08,0.60,0.92,-0.14,-0.47,1.45,-0.94,0.35,0.34,0.00
24.221,0.10,0.55,0.81,-0.14,-0.47,1.45,-0.94,0.35,0.34,0.00
24.25,0.10,0.55,0.81,-0.14,-0.47,1.45,-0.59,0.26,0.22,0.00
24.251,0.10,0.55,0.81,-0.16,-0.00,-0.19,-0.59,0.26,0.22,0.00
24.32,0.11,0.60,0.94,-0.16,-0.00,-0.19,-0.59,0.26,0.22,0.00
24.323,0.11,0.60,0.94,-0.16,-0.00,-0.19,-0.35,0.12,0.14,0.00
24.323,0.11,0.60,0.94,0.60,-0.31,0.67,-0.35,0.12,0.14,0.00
24.354,0.01,0.71,0.75,0.60,-0.31,0.67,-0.35,0.12,0.14,0.00
24.38,0.01,0.71,0.75,0.60,-0.31,0.67,0.62,-0.15,-0.75,0.00
24.381,0.01,0.71,0.75,-0.56,0.25,1.09,0.62,-0.15,-0.75,0.00
24.427,0.08,0.56,0.93,-0.56,0.25,1.09,0.62,-0.15,-0.75,0.00
24.449,0.08,0.56,0.93,-0.56,0.25,1.09,-0.17,0.14,-0.15,0.00
24.451,0.08,0.56,0.93,-0.19,-0.10,-0.45,-0.17,0.14,-0.15,0.00
24.498,0.04,0.60,0.56,-0.19,-0.10,-0.45,-0.17,0.14,-0.15,0.00
24.528,0.04,0.60,0.56,-0.19,-0.10,-0.45,0.39,-0.09,-0.22,0.00
24.531,0.04,0.60,0.56,0.58,-1.21,0.76,0.39,-0.09,-0.22,0.00
24.553,0.18,0.51,0.94,0.58,-1.21,0.76,0.39,-0.09,-0.22,0.00
24.578,0.18,0.51,0.94,0.58,-1.21,0.76,-0.90,0.13,1.26,0.00
24.579,0.18,0.51,0.94,0.81,-0.14,0.93,-0.90,0.13,1.26,0.00
24.625,0.21,0.53,0.96,0.81,-0.14,0.93,-0.90,0.13,1.26,0.00
24.647,0.21,0.53,0.96,0.81,-0.14,0.93,-0.50,0.01,0.89,0.00
24.654,0.21,0.53,0.96,0.25,-0.03,0.53,-0.50,0.01,0.89,0.00
24.684,0.02,0.62,0.63,0.25,-0.03,0.53,-0.50,0.01,0.89,0.00
24.714,0.02,0.62,0.63,0.25,-0.03,0.53,0.86,-0.09,-1.29,0.00
24.716,0.02,0.62,0.63,-1.52,0.94,-1.68,0.86,-0.09,-1.29,0.00
24.75,0.07,0.55,0.85,-1.52,0.94,-1.68,0.86,-0.09,-1.29,0.00
24.776,0.07,0.55,0.85,-1.52,0.94,-1.68,0.10,0.16,-0.65,0.00
24.777,0.07,0.55,0.85,0.37,-0.52,0.44,0.10,0.16,-0.65,0.00
24.82,0.12,0.51,0.88,0.37,-0.52,0.44,0.10,0.16,-0.65,0.00
24.847,0.12,0.51,0.88,0.37,-0.52,0.44,-0.58,0.12,0.56,0.00
24.853,0.12,0.51,0.88,0.51,-0.64,0.20,-0.58,0.12,0.56,0.00
24.882,0.09,0.50,0.90,0.51,-0.64,0.20,-0.58,0.12,0.56,0.00
24.908,0.09,0.50,0.90,0.51,-0.64,0.20,-0.58,0.16,0.58,0.00
24.909,0.09,0.50,0.90,0.08,-0.33,0.29,-0.58,0.16,0.58,0.00
24.947,0.17,0.48,0.82,0.08,-0.33,0.29,-0.58,0.16,0.58,0.00
24.974,0.17,0.48,0.82,0.08,-0.33,0.29,-0.26,-0.10,0.73,0.00
24.975,0.17,0.48,0.82,0.48,-0.10,0.33,-0.26,-0.10,0.73,0.00
25.023,0.17,0.50,0.79,0.48,-0.10,0.33,-0.26,-0.10,0.73,0.00
25.043,0.17,0.50,0.79,0.48,-0.10,0.33,0.14,-0.29,0.29,0.00
25.049,0.17,0.50,0.79,0.01,0.15,-1.18,0.14,-0.29,0.29,0.00
25.08,0.06,0.57,0.69,0.01,0.15,-1.18,0.14,-0.29,0.29,0.00
25.106,0.06,0.57,0.69,0.01,0.15,-1.18,0.72,-0.11,-1.07,0.00
25.107,0.06,0.57,0.69,-1.11,0.40,-0.72,0.72,-0.11,-1.07,0.00
25.147,0.02,0.62,0.89,-1.11,0.40,-0.72,0.72,-0.11,-1.07,0.00
25.19,0.02,0.62,0.89,-1.11,0.40,-0.72,0.21,0.17,-1.04,0.00
25.193,0.02,0.62,0.89,-0.37,0.41,0.77,0.21,0.17,-1.04,0.00
25.215,0.06,0.61,0.82,-0.37,0.41,0.77,0.21,0.17,-1.04,0.00
25.239,0.06,0.61,0.82,-0.37,0.41,0.77,0.11,0.02,-0.30,0.00
25.24,0.06,0.61,0.82,-0.03,0.18,0.41,0.11,0.02,-0.30,0.00
25.277,0.11,0.54,0.77,-0.03,0.18,0.41,0.11,0.02,-0.30,0.00
25.304,0.11,0.54,0.77,-0.03,0.18,0.41,-0.00,-0.07,0.22,0.00
25.306,0.11,0.54,0.77,0.48,-0.17,-0.65,-0.00,-0.07,0.22,0.00
25.353,0.18,0.51,0.98,0.48,-0.17,-0.65,-0.00,-0.07,0.22,0.00
25.372,0.18,0.51,0.98,0.48,-0.17,-0.65,-0.49,-0.01,0.78,0.00
25.374,0.18,0.51,0.98,0.88,-0.45,1.48,-0.49,-0.01,0.78,0.00
25.422,0.21,0.49,0.89,0.88,-0.45,1.48,-0.49,-0.01,0.78,0.00
25.453,0.21,0.49,0.89,0.88,-0.45,1.48,-0.20,-0.14,0.68,0.00
25.454,0.21,0.49,0.89,-0.26,0.36,-0.35,-0.20,-0.14,0.68,0.00
25.477,0.07,0.59,0.87,-0.26,0.36,-0.35,-0.20,-0.14,0.68,0.00
25.502,0.07,0.59,0.87,-0.26,0.36,-0.35,0.19,0.07,-0.50,0.00
25.503,0.07,0.59,0.87,-0.54,0.55,0.12,0.19,0.07,-0.50,0.00
25.541,0.01,0.64,0.82,-0.54,0.55,0.12,0.19,0.07,-0.50,0.00
25.568,0.01,0.64,0.82,-0.54,0.55,0.12,0.50,0.08,-1.00,0.00
25.569,0.01,0.64,0.82,-0.59,0.75,-0.05,0.50,0.08,-1.00,0.00
25.622,0.06,0.59,0.89,-0.59,0.75,-0.05,0.50,0.08,-1.00,0.00
25.635,0.06,0.59,0.89,-0.59,0.75,-0.05,0.03,0.15,-0.33,0.00
25.636,0.06,0.59,0.89,-0.03,0.20,1.29,0.03,0.15,-0.33,0.00
25.675,0.11,0.49,0.73,-0.03,0.20,1.29,0.03,0.15,-0.33,0.00
25.7,0.11,0.49,0.73,-0.03,0.20,1.29,-0.15,0.06,0.38,0.00
25.701,0.11,0.49,0.73,0.38,-0.40,-2.35,-0.15,0.06,0.38,0.00
25.747,0.05,0.56,0.75,0.38,-0.40,-2.35,-0.15,0.06,0.38,0.00
25.769,0.05,0.56,0.75,0.38,-0.40,-2.35,0.12,-0.03,0.18,0.00
25.773,0.05,0.56,0.75,0.27,-0.18,1.00,0.12,-0.03,0.18,0.00
25.827,0.15,0.54,0.87,0.27,-0.18,1.00,0.12,-0.03,0.18,0.00
25.836,0.15,0.54,0.87,0.27,-0.18,1.00,-0.07,-0.10,0.63,0.00
25.836,0.15,0.54,0.87,0.01,0.22,-0.86,-0.07,-0.10,0.63,0.00
25.872,0.06,0.58,0.78,0.01,0.22,-0.86,-0.07,-0.10,0.63,0.00
25.898,0.06,0.58,0.78,0.01,0.22,-0.86,0.33,-0.07,-0.22,0.00
25.899,0.06,0.58,0.78,-0.34,0.07,-0.78,0.33,-0.07,-0.22,0.00
25.943,0.06,0.64,0.68,-0.34,0.07,-0.78,0.33,-0.07,-0.22,0.00
25.966,0.06,0.64,0.68,-0.34,0.07,-0.78,0.65,-0.22,-0.56,0.00
25.968,0.06,0.64,0.68,-0.10,0.40,-0.15,0.65,-0.22,-0.56,0.00
26.004,0.16,0.61,0.86,-0.10,0.40,-0.15,0.65,-0.22,-0.56,0.00
26.033,0.16,0.61,0.86,-0.10,0.40,-0.15,-0.19,-0.06,0.33,0.00
26.047,0.16,0.61,0.86,0.20,0.18,1.54,-0.19,-0.06,0.33,0.00
26.071,0.03,0.65,0.78,0.20,0.18,1.54,-0.19,-0.06,0.33,0.00
26.096,0.03,0.65,0.78,0.20,0.18,1.54,0.38,-0.06,-0.49,0.00
26.097,0.03,0.65,0.78,-0.54,0.26,-2.11,0.38,-0.06,-0.49,0.00
26.146,0.02,0.63,0.71,-0.54,0.26,-2.11,0.38,-0.06,-0.49,0.00
26.17,0.02,0.63,0.71,-0.54,0.26,-2.11,0.39,-0.05,-0.49,0.00
26.172,0.02,0.63,0.71,0.20,-0.46,0.40,0.39,-0.05,-0.49,0.00
26.206,0.15,0.60,0.72,0.20,-0.46,0.40,0.39,-0.05,-0.49,0.00
26.232,0.15,0.60,0.72,0.20,-0.46,0.40,-0.05,-0.13,0.51,0.00
26.233,0.15,0.60,0.72,0.42,-0.16,-0.28,-0.05,-0.13,0.51,0.00
26.279,0.13,0.62,0.81,0.42,-0.16,-0.28,-0.05,-0.13,0.51,0.00
26.307,0.13,0.62,0.81,0.42,-0.16,-0.28,-0.28,0.01,0.49,0.00
26.31,0.13,0.62,0.81,0.42,-0.38,0.73,-0.28,0.01,0.49,0.00
26.354,0.06,0.64,0.59,0.42,-0.38,0.73,-0.28,0.01,0.49,0.00
26.36,0.06,0.64,0.59,0.42,-0.38,0.73,0.42,-0.12,-0.36,0.00
26.36,0.06,0.64,0.59,-0.49,-0.02,-1.65,0.42,-0.12,-0.36,0.00
26.4,0.06,0.64,0.96,-0.49,-0.02,-1.65,0.42,-0.12,-0.36,0.00
26.427,0.06,0.64,0.96,-0.49,-0.02,-1.65,-0.47,0.30,-0.18,0.00
26.428,0.06,0.64,0.96,-0.17,-0.49,1.58,-0.47,0.30,-0.18,0.00
26.465,0.01,0.70,0.66,-0.17,-0.49,1.58,-0.47,0.30,-0.18,0.00
26.492,0.01,0.70,0.66,-0.17,-0.49,1.58,0.07,0.08,-0.43,0.00
26.493,0.01,0.70,0.66,-0.32,0.37,-0.75,0.07,0.08,-0.43,0.00
26.544,0.10,0.61,0.82,-0.32,0.37,-0.75,0.07,0.08,-0.43,0.00
26.558,0.10,0.61,0.82,-0.32,0.37,-0.75,-0.20,0.01,0.31,0.00
26.559,0.10,0.61,0.82,0.27,-0.25,0.49,-0.20,0.01,0.31,0.00
26.597,0.00,0.73,0.64,0.27,-0.25,0.49,-0.20,0.01,0.31,0.00
26.625,0.00,0.73,0.64,0.27,-0.25,0.49,0.64,-0.21,-0.46,0.00
26.626,0.00,0.73,0.64,-0.65,0.09,0.09,0.64,-0.21,-0.46,0.00
26.663,0.15,0.57,0.75,-0.65,0.09,0.09,0.64,-0.21,-0.46,0.00
26.69,0.15,0.57,0.75,-0.65,0.09,0.09,-0.41,0.00,0.44,0.00
26.691,0.15,0.57,0.75,0.86,-1.04,0.06,-0.41,0.00,0.44,0.00
26.738,0.20,0.53,0.82,0.86,-1.04,0.06,-0.41,0.00,0.44,0.00
26.757,0.20,0.53,0.82,0.86,-1.04,0.06,-0.69,-0.04,0.92,0.00
26.759,0.20,0.53,0.82,0.25,-0.03,0.22,-0.69,-0.04,0.92,0.00
26.796,0.12,0.65,0.80,0.25,-0.03,0.22,-0.69,-0.04,0.92,0.00
26.825,0.12,0.65,0.80,0.25,-0.03,0.22,-0.06,-0.07,-0.17,0.00
26.826,0.12,0.65,0.80,0.05,0.84,-0.45,-0.06,-0.07,-0.17,0.00
26.861,0.11,0.73,0.55,0.05,0.84,-0.45,-0.06,-0.07,-0.17,0.00
26.888,0.11,0.73,0.55,0.05,0.84,-0.45,1.22,-0.68,-0.74,0.00
26.889,0.11,0.73,0.55,0.56,0.89,-1.09,1.22,-0.68,-0.74,0.00
26.933,0.36,0.61,0.91,0.56,0.89,-1.09,1.22,-0.68,-0.74,0.00
26.956,0.36,0.61,0.91,0.56,0.89,-1.09,-0.22,-0.40,1.31,0.00
26.958,0.36,0.61,0.91,1.99,-0.40,1.60,-0.22,-0.40,1.31,0.00
26.994,0.34,0.55,0.93,1.99,-0.40,1.60,-0.22,-0.40,1.31,0.00
27.021,0.34,0.55,0.93,1.99,-0.40,1.60,-0.56,-0.01,1.19,0.00
27.023,0.34,0.55,0.93,-0.18,-0.01,-0.29,-0.56,-0.01,1.19,0.00
27.059,0.26,0.64,0.63,-0.18,-0.01,-0.29,-0.56,-0.01,1.19,0.00
27.086,0.26,0.64,0.63,-0.18,-0.01,-0.29,0.57,-0.31,-0.08,0.00
27.087,0.26,0.64,0.63,0.20,0.15,-0.54,0.57,-0.31,-0.08,0.00
27.149,0.16,0.76,0.78,0.20,0.15,-0.54,0.57,-0.31,-0.08,0.00
27.152,0.16,0.76,0.78,0.20,0.15,-0.54,0.51,-0.13,-0.80,0.00
27.153,0.16,0.76,0.78,-0.66,1.20,-0.62,0.51,-0.13,-0.80,0.00
27.196,0.35,0.67,0.75,-0.66,1.20,-0.62,0.51,-0.13,-0.80,0.00
27.224,0.35,0.67,0.75,-0.66,1.20,-0.62,-0.01,-0.13,0.22,0.00
27.225,0.35,0.67,0.75,0.51,-0.29,1.01,-0.01,-0.13,0.22,0.00
27.273,0.12,0.79,0.10,0.51,-0.29,1.01,-0.01,-0.13,0.22,0.00
27.284,0.12,0.79,0.10,0.51,-0.29,1.01,1.08,-0.60,-0.68,0.00
27.285,0.12,0.79,0.10,-1.85,0.27,-7.85,1.08,-0.60,-0.68,0.00
27.325,0.38,0.68,0.80,-1.85,0.27,-7.85,1.08,-0.60,-0.68,0.00
27.35,0.38,0.68,0.80,-1.85,0.27,-7.85,-0.02,-0.27,0.71,0.00
27.351,0.38,0.68,0.80,0.72,-0.36,0.44,-0.02,-0.27,0.71,0.00
