time,gFx,gFy,gFz,ax,ay,az,wx,wy,wz,P
0.019,0.39,0.63,0.61,1.01,-0.51,-0.34,-0.01,-0.31,0.94,0.00
0.052,0.39,0.63,0.61,1.01,-0.51,-0.34,-0.25,-0.05,0.81,0.00
0.053,0.39,0.63,0.61,0.01,-0.23,0.65,-0.25,-0.05,0.81,0.00
0.085,0.25,0.65,0.72,0.01,-0.23,0.65,-0.25,-0.05,0.81,0.00
0.119,0.25,0.65,0.72,0.01,-0.23,0.65,-1.05,0.80,-0.17,0.00
0.12,0.25,0.65,0.72,-1.27,-0.75,2.17,-1.05,0.80,-0.17,0.00
0.152,0.27,0.51,0.93,-1.27,-0.75,2.17,-1.05,0.80,-0.17,0.00
0.19,0.27,0.51,0.93,-1.27,-0.75,2.17,-1.50,0.88,0.05,0.00
0.191,0.27,0.51,0.93,-0.40,-1.26,-0.14,-1.50,0.88,0.05,0.00
0.218,0.20,0.29,0.57,-0.40,-1.26,-0.14,-1.50,0.88,0.05,0.00
0.251,0.20,0.29,0.57,-0.40,-1.26,-0.14,-1.79,0.38,0.91,0.00
0.252,0.20,0.29,0.57,0.68,-3.59,1.35,-1.79,0.38,0.91,0.00
0.284,0.68,0.06,1.75,0.68,-3.59,1.35,-1.79,0.38,0.91,0.00
0.317,0.68,0.06,1.75,0.68,-3.59,1.35,-3.29,0.78,2.93,0.00
0.319,0.68,0.06,1.75,-0.34,-2.13,6.42,-3.29,0.78,2.93,0.00
0.35,-0.13,-0.09,1.05,-0.34,-2.13,6.42,-3.29,0.78,2.93,0.00
0.386,-0.13,-0.09,1.05,-0.34,-2.13,6.42,-2.27,2.44,0.43,0.00
0.388,-0.13,-0.09,1.05,-0.52,-2.17,1.09,-2.27,2.44,0.43,0.00
0.416,0.24,0.01,0.63,-0.52,-2.17,1.09,-2.27,2.44,0.43,0.00
0.449,0.24,0.01,0.63,-0.52,-2.17,1.09,-0.19,-1.54,2.82,0.00
0.451,0.24,0.01,0.63,4.96,0.26,-4.79,-0.19,-1.54,2.82,0.00
0.482,0.24,0.31,0.87,4.96,0.26,-4.79,-0.19,-1.54,2.82,0.00
0.515,0.24,0.31,0.87,4.96,0.26,-4.79,1.53,-0.21,-1.45,0.00
0.517,0.24,0.31,0.87,-2.61,3.83,0.05,1.53,-0.21,-1.45,0.00
0.548,0.03,0.62,0.74,-2.61,3.83,0.05,1.53,-0.21,-1.45,0.00
0.587,0.03,0.62,0.74,-2.61,3.83,0.05,3.01,0.01,-4.53,0.00
0.588,0.03,0.62,0.74,-2.18,3.16,-3.21,3.01,0.01,-4.53,0.00
0.614,-0.13,0.92,0.45,-2.18,3.16,-3.21,3.01,0.01,-4.53,0.00
0.647,-0.13,0.92,0.45,-2.18,3.16,-3.21,3.87,-0.32,-4.76,0.00
0.649,-0.13,0.92,0.45,-1.72,2.31,-3.53,3.87,-0.32,-4.76,0.00
0.68,0.02,0.85,0.37,-1.72,2.31,-3.53,3.87,-0.32,-4.76,0.00
0.729,0.02,0.85,0.37,-1.72,2.31,-3.53,3.31,-0.43,-1.65,0.00
0.73,0.02,0.85,0.37,0.06,0.39,-1.82,3.31,-0.43,-1.65,0.00
0.75,0.03,0.70,0.73,0.06,0.39,-1.82,3.31,-0.43,-1.65,0.00
0.791,0.03,0.70,0.73,0.06,0.39,-1.82,-0.65,0.23,-0.02,0.00
0.793,0.03,0.70,0.73,-0.45,-1.57,0.77,-0.65,0.23,-0.02,0.00
0.812,-0.10,0.69,0.46,-0.45,-1.57,0.77,-0.65,0.23,-0.02,0.00
0.845,-0.10,0.69,0.46,-0.45,-1.57,0.77,0.78,0.10,-1.93,0.00
0.846,-0.10,0.69,0.46,-2.88,-1.74,0.08,0.78,0.10,-1.93,0.00
0.878,-0.38,0.78,0.83,-2.88,-1.74,0.08,0.78,0.10,-1.93,0.00
0.911,-0.38,0.78,0.83,-2.88,-1.74,0.08,-1.01,0.22,-2.29,0.00
0.913,-0.38,0.78,0.83,-1.56,0.39,-1.86,-1.01,0.22,-2.29,0.00
0.944,0.17,0.77,0.08,-1.56,0.39,-1.86,-1.01,0.22,-2.29,0.00
0.981,0.17,0.77,0.08,-1.56,0.39,-1.86,1.99,-0.23,2.02,0.00
0.983,0.17,0.77,0.08,4.14,0.87,-0.77,1.99,-0.23,2.02,0.00
1.01,0.68,0.64,0.86,4.14,0.87,-0.77,1.99,-0.23,2.02,0.00
1.043,0.68,0.64,0.86,4.14,0.87,-0.77,-0.56,-0.57,5.37,0.00
1.045,0.68,0.64,0.86,5.46,-0.55,-0.69,-0.56,-0.57,5.37,0.00
1.076,0.17,0.89,0.99,5.46,-0.55,-0.69,-0.56,-0.57,5.37,0.00
1.109,0.17,0.89,0.99,5.46,-0.55,-0.69,-0.88,0.43,1.40,0.00
1.111,0.17,0.89,0.99,-0.53,1.39,1.59,-0.88,0.43,1.40,0.00
1.142,0.28,0.67,0.89,-0.53,1.39,1.59,-0.88,0.43,1.40,0.00
1.184,0.28,0.67,0.89,-0.53,1.39,1.59,-0.80,0.50,0.70,0.00
1.186,0.28,0.67,0.89,0.43,-0.38,0.91,-0.80,0.50,0.70,0.00
1.208,0.19,0.73,0.48,0.43,-0.38,0.91,-0.80,0.50,0.70,0.00
1.241,0.19,0.73,0.48,0.43,-0.38,0.91,0.29,0.13,-0.17,0.00
1.243,0.19,0.73,0.48,-1.36,0.44,-0.43,0.29,0.13,-0.17,0.00
1.274,0.10,0.77,0.65,-1.36,0.44,-0.43,0.29,0.13,-0.17,0.00
1.307,0.10,0.77,0.65,-1.36,0.44,-0.43,0.54,0.14,-0.73,0.00
1.309,0.10,0.77,0.65,-0.47,-0.17,-0.25,0.54,0.14,-0.73,0.00
1.34,0.16,0.68,0.82,-0.47,-0.17,-0.25,0.54,0.14,-0.73,0.00
1.376,0.16,0.68,0.82,-0.47,-0.17,-0.25,-0.48,0.33,-0.18,0.00
1.378,0.16,0.68,0.82,-0.19,0.04,-0.54,-0.48,0.33,-0.18,0.00
1.405,0.05,0.78,0.81,-0.19,0.04,-0.54,-0.48,0.33,-0.18,0.00
1.439,0.05,0.78,0.81,-0.19,0.04,-0.54,-0.41,0.51,-0.71,0.00
1.441,0.05,0.78,0.81,-1.06,0.54,2.22,-0.41,0.51,-0.71,0.00
1.472,-0.09,0.85,0.73,-1.06,0.54,2.22,-0.41,0.51,-0.71,0.00
1.505,-0.09,0.85,0.73,-1.06,0.54,2.22,0.64,0.35,-1.52,0.00
1.506,-0.09,0.85,0.73,-1.54,1.62,-1.18,0.64,0.35,-1.52,0.00
1.538,-0.12,0.93,0.65,-1.54,1.62,-1.18,0.64,0.35,-1.52,0.00
1.576,-0.12,0.93,0.65,-1.54,1.62,-1.18,0.96,0.15,-1.25,0.00
1.578,-0.12,0.93,0.65,-0.44,1.07,1.24,0.96,0.15,-1.25,0.00
1.603,-0.05,0.91,0.49,-0.44,1.07,1.24,0.96,0.15,-1.25,0.00
1.637,-0.05,0.91,0.49,-0.44,1.07,1.24,1.04,-0.01,-0.13,0.00
1.638,-0.05,0.91,0.49,0.52,0.82,-1.18,1.04,-0.01,-0.13,0.00
1.67,-0.14,0.97,0.49,0.52,0.82,-1.18,1.04,-0.01,-0.13,0.00
1.703,-0.14,0.97,0.49,0.52,0.82,-1.18,1.06,0.05,-0.36,0.00
1.704,-0.14,0.97,0.49,-0.59,0.93,-0.22,1.06,0.05,-0.36,0.00
1.737,-0.06,0.89,0.39,-0.59,0.93,-0.22,1.06,0.05,-0.36,0.00
1.776,-0.06,0.89,0.39,-0.59,0.93,-0.22,0.92,-0.08,0.20,0.00
1.777,-0.06,0.89,0.39,0.86,-0.29,-1.85,0.92,-0.08,0.20,0.00
1.802,0.08,0.83,0.12,0.86,-0.29,-1.85,0.92,-0.08,0.20,0.00
1.835,0.08,0.83,0.12,0.86,-0.29,-1.85,2.00,-0.31,0.69,0.00
1.836,0.08,0.83,0.12,0.33,-0.15,-2.31,2.00,-0.31,0.69,0.00
1.867,-0.01,0.93,0.37,0.33,-0.15,-2.31,2.00,-0.31,0.69,0.00
1.901,-0.01,0.93,0.37,0.33,-0.15,-2.31,0.55,-0.06,0.12,0.00
1.902,-0.01,0.93,0.37,0.06,-0.22,-0.20,0.55,-0.06,0.12,0.00
1.933,-0.01,0.89,0.26,0.06,-0.22,-0.20,0.55,-0.06,0.12,0.00
1.976,-0.01,0.89,0.26,0.06,-0.22,-0.20,0.67,-0.06,0.19,0.00
1.977,-0.01,0.89,0.26,0.44,-0.90,-1.99,0.67,-0.06,0.19,0.00
1.999,-0.01,0.93,0.11,0.44,-0.90,-1.99,0.67,-0.06,0.19,0.00
2.033,-0.01,0.93,0.11,0.44,-0.90,-1.99,1.19,-0.09,0.03,0.00
2.034,-0.01,0.93,0.11,-0.11,-0.72,-0.14,1.19,-0.09,0.03,0.00
2.065,-0.05,0.90,0.25,-0.11,-0.72,-0.14,1.19,-0.09,0.03,0.00
2.099,-0.05,0.90,0.25,-0.11,-0.72,-0.14,-0.61,0.13,-0.34,0.00
2.1,-0.05,0.90,0.25,-0.53,-1.04,1.75,-0.61,0.13,-0.34,0.00
2.132,-0.03,0.87,0.18,-0.53,-1.04,1.75,-0.61,0.13,-0.34,0.00
2.173,-0.03,0.87,0.18,-0.53,-1.04,1.75,0.25,0.02,-0.14,0.00
2.175,-0.03,0.87,0.18,0.05,-0.43,-0.54,0.25,0.02,-0.14,0.00
2.198,-0.00,0.96,0.22,0.05,-0.43,-0.54,0.25,0.02,-0.14,0.00
2.231,-0.00,0.96,0.22,0.05,-0.43,-0.54,0.09,0.02,0.12,0.00
2.232,-0.00,0.96,0.22,0.29,0.08,0.01,0.09,0.02,0.12,0.00
2.263,0.00,0.98,0.34,0.29,0.08,0.01,0.09,0.02,0.12,0.00
2.297,0.00,0.98,0.34,0.29,0.08,0.01,-0.32,0.05,0.28,0.00
2.298,0.00,0.98,0.34,0.37,-0.13,-0.03,-0.32,0.05,0.28,0.00
2.329,0.00,0.97,0.23,0.37,-0.13,-0.03,-0.32,0.05,0.28,0.00
2.37,0.00,0.97,0.23,0.37,-0.13,-0.03,-0.03,0.01,0.05,0.00
2.372,0.00,0.97,0.23,-0.18,-0.06,-0.14,-0.03,0.01,0.05,0.00
2.395,0.02,0.96,0.17,-0.18,-0.06,-0.14,-0.03,0.01,0.05,0.00
2.429,0.02,0.96,0.17,-0.18,-0.06,-0.14,0.19,-0.02,0.12,0.00
2.43,0.02,0.96,0.17,0.40,-0.08,0.57,0.19,-0.02,0.12,0.00
2.462,0.08,0.92,0.36,0.40,-0.08,0.57,0.19,-0.02,0.12,0.00
2.495,0.08,0.92,0.36,0.40,-0.08,0.57,-0.65,0.08,0.38,0.00
2.496,0.08,0.92,0.36,0.09,-0.21,0.35,-0.65,0.08,0.38,0.00
2.527,-0.02,0.97,0.18,0.09,-0.21,0.35,-0.65,0.08,0.38,0.00
2.568,-0.02,0.97,0.18,0.09,-0.21,0.35,0.42,-0.02,-0.20,0.00
2.57,-0.02,0.97,0.18,-0.26,0.13,-0.68,0.42,-0.02,-0.20,0.00
2.593,-0.00,0.98,0.19,-0.26,0.13,-0.68,0.42,-0.02,-0.20,0.00
2.627,-0.00,0.98,0.19,-0.26,0.13,-0.68,0.33,-0.03,-0.27,0.00
2.628,-0.00,0.98,0.19,-0.63,0.55,0.45,0.33,-0.03,-0.27,0.00
2.659,-0.10,0.99,0.24,-0.63,0.55,0.45,0.33,-0.03,-0.27,0.00
2.693,-0.10,0.99,0.24,-0.63,0.55,0.45,0.14,0.04,-0.62,0.00
2.694,-0.10,0.99,0.24,-0.45,-0.06,-0.46,0.14,0.04,-0.62,0.00
2.736,-0.02,0.94,0.03,-0.45,-0.06,-0.46,0.14,0.04,-0.62,0.00
2.769,-0.02,0.94,0.03,-0.45,-0.06,-0.46,0.86,-0.01,-0.01,0.00
2.77,-0.02,0.94,0.03,0.41,-0.57,0.95,0.86,-0.01,-0.01,0.00
2.792,-0.02,0.91,0.29,0.41,-0.57,0.95,0.86,-0.01,-0.01,0.00
2.825,-0.02,0.91,0.29,0.41,-0.57,0.95,-0.06,0.06,0.25,0.00
2.826,-0.02,0.91,0.29,0.30,-0.80,-0.74,-0.06,0.06,0.25,0.00
2.857,-0.02,0.92,0.16,0.30,-0.80,-0.74,-0.06,0.06,0.25,0.00
2.891,-0.02,0.92,0.16,0.30,-0.80,-0.74,0.20,0.03,0.25,0.00
2.892,-0.02,0.92,0.16,0.45,-0.65,0.04,0.20,0.03,0.25,0.00
2.923,-0.07,1.02,0.19,0.45,-0.65,0.04,0.20,0.03,0.25,0.00
2.96,-0.07,1.02,0.19,0.45,-0.65,0.04,0.05,0.01,-0.14,0.00
2.962,-0.07,1.02,0.19,-0.10,0.27,-0.25,0.05,0.01,-0.14,0.00
2.991,0.05,1.02,0.23,-0.10,0.27,-0.25,0.05,0.01,-0.14,0.00
3.023,0.05,1.02,0.23,-0.10,0.27,-0.25,-0.90,0.03,0.54,0.00
3.024,0.05,1.02,0.23,0.68,-0.11,2.51,-0.90,0.03,0.54,0.00
3.055,0.05,0.98,0.38,0.68,-0.11,2.51,-0.90,0.03,0.54,0.00
3.102,0.05,0.98,0.38,0.68,-0.11,2.51,-1.02,0.11,0.38,0.00
3.104,0.05,0.98,0.38,0.12,0.41,0.37,-1.02,0.11,0.38,0.00
3.132,0.08,0.97,0.28,0.12,0.41,0.37,-1.02,0.11,0.38,0.00
3.159,0.08,0.97,0.28,0.12,0.41,0.37,-0.12,-0.07,0.40,0.00
3.16,0.08,0.97,0.28,0.79,0.04,-0.22,-0.12,-0.07,0.40,0.00
3.187,0.12,0.99,0.43,0.79,0.04,-0.22,-0.12,-0.07,0.40,0.00
3.221,0.12,0.99,0.43,0.79,0.04,-0.22,-0.76,0.07,0.48,0.00
3.223,0.12,0.99,0.43,0.29,-0.05,1.52,-0.76,0.07,0.48,0.00
3.258,0.05,0.95,0.34,0.29,-0.05,1.52,-0.76,0.07,0.48,0.00
3.287,0.05,0.95,0.34,0.29,-0.05,1.52,0.01,-0.00,-0.27,0.00
3.293,0.05,0.95,0.34,-0.43,0.30,-0.20,0.01,-0.00,-0.27,0.00
3.325,0.02,0.98,0.28,-0.43,0.30,-0.20,0.01,-0.00,-0.27,0.00
3.359,0.02,0.98,0.28,-0.43,0.30,-0.20,0.35,-0.04,-0.50,0.00
3.363,0.02,0.98,0.28,-0.82,0.73,-0.40,0.35,-0.04,-0.50,0.00
3.39,-0.07,1.01,0.17,-0.82,0.73,-0.40,0.35,-0.04,-0.50,0.00
3.423,-0.07,1.01,0.17,-0.82,0.73,-0.40,0.85,-0.03,-0.75,0.00
3.425,-0.07,1.01,0.17,-0.59,0.24,-0.98,0.85,-0.03,-0.75,0.00
3.452,-0.05,0.94,0.19,-0.59,0.24,-0.98,0.85,-0.03,-0.75,0.00
3.485,-0.05,0.94,0.19,-0.59,0.24,-0.98,0.67,0.01,-0.52,0.00
3.49,-0.05,0.94,0.19,-0.54,-0.47,-0.70,0.67,0.01,-0.52,0.00
3.52,-0.03,0.87,0.22,-0.54,-0.47,-0.70,0.67,0.01,-0.52,0.00
3.559,-0.03,0.87,0.22,-0.54,-0.47,-0.70,0.18,0.01,0.03,0.00
3.563,-0.03,0.87,0.22,0.91,-1.45,-0.42,0.18,0.01,0.03,0.00
3.583,0.07,0.88,0.20,0.91,-1.45,-0.42,0.18,0.01,0.03,0.00
3.62,0.07,0.88,0.20,0.91,-1.45,-0.42,-0.01,-0.03,0.58,0.00
3.623,0.07,0.88,0.20,0.45,-0.89,0.85,-0.01,-0.03,0.58,0.00
3.653,-0.01,0.95,0.20,0.45,-0.89,0.85,-0.01,-0.03,0.58,0.00
3.697,-0.01,0.95,0.20,0.45,-0.89,0.85,-0.07,0.02,-0.13,0.00
3.7,-0.01,0.95,0.20,-0.84,0.28,-0.03,-0.07,0.02,-0.13,0.00
3.722,-0.06,1.04,0.12,-0.84,0.28,-0.03,-0.07,0.02,-0.13,0.00
3.767,-0.06,1.04,0.12,-0.84,0.28,-0.03,0.36,-0.00,-0.43,0.00
3.768,-0.06,1.04,0.12,-0.46,0.35,0.01,0.36,-0.00,-0.43,0.00
3.786,-0.07,1.05,0.18,-0.46,0.35,0.01,0.36,-0.00,-0.43,0.00
3.817,-0.07,1.05,0.18,-0.46,0.35,0.01,0.30,0.02,-0.34,0.00
3.818,-0.07,1.05,0.18,-0.20,0.64,0.08,0.30,0.02,-0.34,0.00
3.847,-0.00,0.93,0.20,-0.20,0.64,0.08,0.30,0.02,-0.34,0.00
3.881,-0.00,0.93,0.20,-0.20,0.64,0.08,0.01,0.02,0.22,0.00
3.883,-0.00,0.93,0.20,0.71,-0.64,-0.79,0.01,0.02,0.22,0.00
3.913,0.01,0.92,0.21,0.71,-0.64,-0.79,0.01,0.02,0.22,0.00
3.955,0.01,0.92,0.21,0.71,-0.64,-0.79,-0.02,0.04,0.37,0.00
3.957,0.01,0.92,0.21,0.22,-0.57,-0.40,-0.02,0.04,0.37,0.00
3.979,0.00,0.96,0.17,0.22,-0.57,-0.40,-0.02,0.04,0.37,0.00
4.033,0.00,0.96,0.17,0.22,-0.57,-0.40,-0.06,0.02,0.17,0.00
4.036,0.00,0.96,0.17,-0.02,-0.19,0.33,-0.06,0.02,0.17,0.00
4.046,0.00,0.95,0.17,-0.02,-0.19,0.33,-0.06,0.02,0.17,0.00
4.079,0.00,0.95,0.17,-0.02,-0.19,0.33,0.04,0.01,0.10,0.00
4.08,0.00,0.95,0.17,0.29,-0.41,-0.25,0.04,0.01,0.10,0.00
4.117,-0.03,1.00,0.25,0.29,-0.41,-0.25,0.04,0.01,0.10,0.00
4.151,-0.03,1.00,0.25,0.29,-0.41,-0.25,-0.53,0.08,0.00,0.00
4.153,-0.03,1.00,0.25,0.10,-0.41,0.35,-0.53,0.08,0.00,0.00
4.177,-0.00,0.94,0.13,0.10,-0.41,0.35,-0.53,0.08,0.00,0.00
4.216,-0.00,0.94,0.13,0.10,-0.41,0.35,0.29,-0.02,0.13,0.00
4.219,-0.00,0.94,0.13,0.79,-0.23,-0.63,0.29,-0.02,0.13,0.00
4.244,0.03,0.90,0.30,0.79,-0.23,-0.63,0.29,-0.02,0.13,0.00
4.277,0.03,0.90,0.30,0.79,-0.23,-0.63,-0.11,0.02,0.17,0.00
4.278,0.03,0.90,0.30,-0.29,-0.73,-0.87,-0.11,0.02,0.17,0.00
4.328,0.00,0.97,0.00,-0.29,-0.73,-0.87,-0.11,0.02,0.17,0.00
4.358,0.00,0.97,0.00,-0.29,-0.73,-0.87,0.79,-0.08,-0.21,0.00
4.359,0.00,0.97,0.00,-0.26,-0.21,0.73,0.79,-0.08,-0.21,0.00
4.375,-0.01,0.95,0.30,-0.26,-0.21,0.73,0.79,-0.08,-0.21,0.00
4.416,-0.01,0.95,0.30,-0.26,-0.21,0.73,-0.61,0.06,-0.27,0.00
4.418,-0.01,0.95,0.30,-0.76,-0.18,-0.17,-0.61,0.06,-0.27,0.00
4.443,-0.08,0.94,0.03,-0.76,-0.18,-0.17,-0.61,0.06,-0.27,0.00
4.475,-0.08,0.94,0.03,-0.76,-0.18,-0.17,0.69,-0.05,-0.47,0.00
4.479,-0.08,0.94,0.03,-0.13,-0.40,-0.61,0.69,-0.05,-0.47,0.00
4.515,-0.02,0.95,0.25,-0.13,-0.40,-0.61,0.69,-0.05,-0.47,0.00
4.551,-0.02,0.95,0.25,-0.13,-0.40,-0.61,-0.22,-0.03,-0.03,0.00
4.553,-0.02,0.95,0.25,-0.02,-0.21,0.73,-0.22,-0.03,-0.03,0.00
4.573,-0.05,0.96,0.22,-0.02,-0.21,0.73,-0.22,-0.03,-0.03,0.00
4.612,-0.05,0.96,0.22,-0.02,-0.21,0.73,-0.38,0.00,-0.10,0.00
4.614,-0.05,0.96,0.22,-0.09,0.20,0.97,-0.38,0.00,-0.10,0.00
4.639,-0.01,0.98,0.35,-0.09,0.20,0.97,-0.38,0.00,-0.10,0.00
4.673,-0.01,0.98,0.35,-0.09,0.20,0.97,-1.17,0.02,-0.02,0.00
4.675,-0.01,0.98,0.35,-0.61,1.02,1.72,-1.17,0.02,-0.02,0.00
4.706,-0.03,1.00,0.29,-0.61,1.02,1.72,-1.17,0.02,-0.02,0.00
4.758,-0.03,1.00,0.29,-0.61,1.02,1.72,-0.29,-0.09,0.15,0.00
4.76,-0.03,1.00,0.29,0.94,0.12,-0.19,-0.29,-0.09,0.15,0.00
4.773,0.09,0.97,0.41,0.94,0.12,-0.19,-0.29,-0.09,0.15,0.00
4.806,0.09,0.97,0.41,0.94,0.12,-0.19,-0.59,-0.01,0.76,0.00
4.807,0.09,0.97,0.41,0.16,0.35,0.37,-0.59,-0.01,0.76,0.00
4.847,0.00,1.04,0.22,0.16,0.35,0.37,-0.59,-0.01,0.76,0.00
4.878,0.00,1.04,0.22,0.16,0.35,0.37,0.59,-0.10,0.02,0.00
4.88,0.00,1.04,0.22,-0.31,1.23,-0.42,0.59,-0.10,0.02,0.00
4.903,-0.16,0.98,0.33,-0.31,1.23,-0.42,0.59,-0.10,0.02,0.00
4.937,-0.16,0.98,0.33,-0.31,1.23,-0.42,0.04,0.09,-0.93,0.00
4.938,-0.16,0.98,0.33,-1.25,-0.02,-0.30,0.04,0.09,-0.93,0.00
4.969,-0.09,0.91,0.02,-1.25,-0.02,-0.30,0.04,0.09,-0.93,0.00
5.004,-0.09,0.91,0.02,-1.25,-0.02,-0.30,1.43,-0.03,-0.32,0.00
5.006,-0.09,0.91,0.02,0.72,-0.77,-2.16,1.43,-0.03,-0.32,0.00
5.036,0.10,0.86,0.23,0.72,-0.77,-2.16,1.43,-0.03,-0.32,0.00
5.071,0.10,0.86,0.23,0.72,-0.77,-2.16,0.29,-0.04,1.03,0.00
5.072,0.10,0.86,0.23,1.19,-1.05,0.03,0.29,-0.04,1.03,0.00
5.104,0.14,0.97,-0.05,1.19,-1.05,0.03,0.29,-0.04,1.03,0.00
5.137,0.14,0.97,-0.05,1.19,-1.05,0.03,0.72,-0.11,0.75,0.00
5.139,0.14,0.97,-0.05,0.53,0.25,-0.48,0.72,-0.11,0.75,0.00
5.167,0.09,0.96,0.36,0.53,0.25,-0.48,0.72,-0.11,0.75,0.00
5.201,0.09,0.96,0.36,0.53,0.25,-0.48,-0.80,0.09,0.27,0.00
5.202,0.09,0.96,0.36,-0.06,-0.14,0.62,-0.80,0.09,0.27,0.00
5.233,0.05,1.01,0.02,-0.06,-0.14,0.62,-0.80,0.09,0.27,0.00
5.269,0.05,1.01,0.02,-0.06,-0.14,0.62,0.51,-0.04,-0.05,0.00
5.271,0.05,1.01,0.02,0.04,-0.25,-0.20,0.51,-0.04,-0.05,0.00
5.299,0.05,0.87,0.29,0.04,-0.25,-0.20,0.51,-0.04,-0.05,0.00
5.345,0.05,0.87,0.29,0.04,-0.25,-0.20,-0.54,0.11,-0.33,0.00
5.347,0.05,0.87,0.29,-1.34,-0.80,0.28,-0.54,0.11,-0.33,0.00
5.365,-0.07,0.88,0.07,-1.34,-0.80,0.28,-0.54,0.11,-0.33,0.00
5.399,-0.07,0.88,0.07,-1.34,-0.80,0.28,0.53,-0.02,-0.91,0.00
5.4,-0.07,0.88,0.07,-0.10,-1.41,0.72,0.53,-0.02,-0.91,0.00
5.432,-0.04,0.88,0.08,-0.10,-1.41,0.72,0.53,-0.02,-0.91,0.00
5.468,-0.04,0.88,0.08,-0.10,-1.41,0.72,0.54,-0.05,-0.13,0.00
5.469,-0.04,0.88,0.08,0.39,-0.76,-1.31,0.54,-0.05,-0.13,0.00
5.497,0.03,0.99,0.26,0.39,-0.76,-1.31,0.54,-0.05,-0.13,0.00
5.544,0.03,0.99,0.26,0.39,-0.76,-1.31,-0.63,-0.02,0.43,0.00
5.546,0.03,0.99,0.26,0.74,-0.36,2.57,-0.63,-0.02,0.43,0.00
5.563,0.03,0.98,0.13,0.74,-0.36,2.57,-0.63,-0.02,0.43,0.00
5.597,0.03,0.98,0.13,0.74,-0.36,2.57,0.02,-0.06,0.14,0.00
5.598,0.03,0.98,0.13,-0.18,0.82,-0.07,0.02,-0.06,0.14,0.00
5.629,0.06,0.93,0.56,-0.18,0.82,-0.07,0.02,-0.06,0.14,0.00
5.665,0.06,0.93,0.56,-0.18,0.82,-0.07,-1.93,0.14,0.22,0.00
5.667,0.06,0.93,0.56,-0.27,-0.55,2.73,-1.93,0.14,0.22,0.00
5.695,-0.08,1.02,-0.10,-0.27,-0.55,2.73,-1.93,0.14,0.22,0.00
5.729,-0.08,1.02,-0.10,-0.27,-0.55,2.73,0.80,-0.13,-0.47,0.00
5.73,-0.08,1.02,-0.10,0.20,0.71,-3.07,0.80,-0.13,-0.47,0.00
5.779,0.10,0.94,0.61,0.20,0.71,-3.07,0.80,-0.13,-0.47,0.00
5.797,0.10,0.94,0.61,0.20,0.71,-3.07,-1.81,0.21,0.10,0.00
5.798,0.10,0.94,0.61,-1.19,-0.23,0.05,-1.81,0.21,0.10,0.00
5.827,-0.09,1.00,-0.11,-1.19,-0.23,0.05,-1.81,0.21,0.10,0.00
5.868,-0.09,1.00,-0.11,-1.19,-0.23,0.05,0.89,-0.10,-0.65,0.00
5.87,-0.09,1.00,-0.11,0.89,-1.48,2.33,0.89,-0.10,-0.65,0.00
5.893,0.10,0.76,0.43,0.89,-1.48,2.33,0.89,-0.10,-0.65,0.00
5.927,0.10,0.76,0.43,0.89,-1.48,2.33,-0.75,0.05,0.57,0.00
5.929,0.10,0.76,0.43,0.44,-0.69,-0.66,-0.75,0.05,0.57,0.00
5.959,-0.01,0.97,0.19,0.44,-0.69,-0.66,-0.75,0.05,0.57,0.00
5.993,-0.01,0.97,0.19,0.44,-0.69,-0.66,0.79,-0.14,0.09,0.00
5.994,-0.01,0.97,0.19,0.36,0.01,-1.14,0.79,-0.14,0.09,0.00
6.025,0.01,0.96,0.36,0.36,0.01,-1.14,0.79,-0.14,0.09,0.00
6.067,0.01,0.96,0.36,0.36,0.01,-1.14,-0.08,0.04,0.07,0.00
6.069,0.01,0.96,0.36,-0.78,0.29,1.06,-0.08,0.04,0.07,0.00
6.098,-0.02,0.98,0.26,-0.78,0.29,1.06,-0.08,0.04,0.07,0.00
6.133,-0.02,0.98,0.26,-0.78,0.29,1.06,-0.05,0.06,-0.35,0.00
6.136,-0.02,0.98,0.26,-0.30,0.21,-0.28,-0.05,0.06,-0.35,0.00
6.157,0.09,0.91,0.62,-0.30,0.21,-0.28,-0.05,0.06,-0.35,0.00
6.191,0.09,0.91,0.62,-0.30,0.21,-0.28,-1.62,0.23,0.42,0.00
6.193,0.09,0.91,0.62,0.22,0.11,2.39,-1.62,0.23,0.42,0.00
6.223,0.03,1.03,0.37,0.22,0.11,2.39,-1.62,0.23,0.42,0.00
6.259,0.03,1.03,0.37,0.22,0.11,2.39,-0.50,0.10,-0.08,0.00
6.262,0.03,1.03,0.37,-0.51,0.92,1.48,-0.50,0.10,-0.08,0.00
6.295,-0.14,1.01,0.33,-0.51,0.92,1.48,-0.50,0.10,-0.08,0.00
6.323,-0.14,1.01,0.33,-0.51,0.92,1.48,0.42,0.06,-0.87,0.00
6.328,-0.14,1.01,0.33,-1.21,0.99,-1.09,0.42,0.06,-0.87,0.00
6.363,-0.12,0.89,0.39,-1.21,0.99,-1.09,0.42,0.06,-0.87,0.00
6.389,-0.12,0.89,0.39,-1.21,0.99,-1.09,0.24,0.07,-0.67,0.00
6.391,-0.12,0.89,0.39,-0.20,-0.98,-0.29,0.24,0.07,-0.67,0.00
6.423,-0.01,0.79,0.25,-0.20,-0.98,-0.29,0.24,0.07,-0.67,0.00
6.457,-0.01,0.79,0.25,-0.20,-0.98,-0.29,0.37,-0.07,0.33,0.00
6.46,-0.01,0.79,0.25,1.09,-1.63,-0.78,0.37,-0.07,0.33,0.00
6.487,0.08,0.85,0.21,1.09,-1.63,-0.78,0.37,-0.07,0.33,0.00
6.521,0.08,0.85,0.21,1.09,-1.63,-0.78,0.61,-0.15,0.77,0.00
6.526,0.08,0.85,0.21,0.30,-0.44,-0.55,0.61,-0.15,0.77,0.00
6.569,0.05,0.95,0.24,0.30,-0.44,-0.55,0.61,-0.15,0.77,0.00
6.588,0.05,0.95,0.24,0.30,-0.44,-0.55,0.59,-0.10,0.25,0.00
6.596,0.05,0.95,0.24,-0.18,0.42,-0.38,0.59,-0.10,0.25,0.00
6.62,-0.10,1.03,0.41,-0.18,0.42,-0.38,0.59,-0.10,0.25,0.00
6.654,-0.10,1.03,0.41,-0.18,0.42,-0.38,-0.35,0.16,-0.88,0.00
6.656,-0.10,1.03,0.41,-1.25,0.39,-0.34,-0.35,0.16,-0.88,0.00
6.691,-0.03,0.96,0.21,-1.25,0.39,-0.34,-0.35,0.16,-0.88,0.00
6.742,-0.03,0.96,0.21,-1.25,0.39,-0.34,0.45,0.04,-0.43,0.00
6.743,-0.03,0.96,0.21,0.24,0.05,-0.70,0.45,0.04,-0.43,0.00
6.756,0.04,0.83,0.19,0.24,0.05,-0.70,0.45,0.04,-0.43,0.00
6.79,0.04,0.83,0.19,0.24,0.05,-0.70,0.19,-0.06,0.40,0.00
6.791,0.04,0.83,0.19,0.68,-0.77,-1.99,0.19,-0.06,0.40,0.00
6.821,-0.06,0.91,0.39,0.68,-0.77,-1.99,0.19,-0.06,0.40,0.00
6.863,-0.06,0.91,0.39,0.68,-0.77,-1.99,-0.57,-0.01,-0.07,0.00
6.866,-0.06,0.91,0.39,-0.36,-0.52,-0.68,-0.57,-0.01,-0.07,0.00
6.887,-0.10,1.00,0.17,-0.36,-0.52,-0.68,-0.57,-0.01,-0.07,0.00
6.917,-0.10,1.00,0.17,-0.36,-0.52,-0.68,0.06,-0.03,-0.48,0.00
6.921,-0.10,1.00,0.17,-0.31,0.31,1.26,0.06,-0.03,-0.48,0.00
6.949,-0.10,1.06,0.18,-0.31,0.31,1.26,0.06,-0.03,-0.48,0.00
6.993,-0.10,1.06,0.18,-0.31,0.31,1.26,0.01,-0.01,-0.33,0.00
6.994,-0.10,1.06,0.18,-0.32,1.02,-1.11,0.01,-0.01,-0.33,0.00
7.015,-0.08,1.01,0.37,-0.32,1.02,-1.11,0.01,-0.01,-0.33,0.00
7.057,-0.08,1.01,0.37,-0.32,1.02,-1.11,-0.37,-0.02,0.17,0.00
7.058,-0.08,1.01,0.37,1.53,-1.78,0.60,-0.37,-0.02,0.17,0.00
7.085,0.07,0.81,0.17,1.53,-1.78,0.60,-0.37,-0.02,0.17,0.00
7.12,0.07,0.81,0.17,1.53,-1.78,0.60,0.58,-0.18,0.79,0.00
7.121,0.07,0.81,0.17,0.65,-0.85,-2.50,0.58,-0.18,0.79,0.00
7.154,0.05,0.83,0.32,0.65,-0.85,-2.50,0.58,-0.18,0.79,0.00
7.192,0.05,0.83,0.32,0.65,-0.85,-2.50,-0.16,-0.10,0.48,0.00
7.195,0.05,0.83,0.32,0.46,-1.27,-0.77,-0.16,-0.10,0.48,0.00
7.213,-0.01,1.00,0.14,0.46,-1.27,-0.77,-0.16,-0.10,0.48,0.00
7.256,-0.01,1.00,0.14,0.46,-1.27,-0.77,0.27,-0.11,-0.16,0.00
7.257,-0.01,1.00,0.14,-0.55,0.42,1.39,0.27,-0.11,-0.16,0.00
7.279,0.04,0.92,0.52,-0.55,0.42,1.39,0.27,-0.11,-0.16,0.00
7.313,0.04,0.92,0.52,-0.55,0.42,1.39,-0.83,0.00,-0.11,0.00
7.316,0.04,0.92,0.52,-0.15,0.37,0.26,-0.83,0.00,-0.11,0.00
7.345,-0.01,1.05,0.32,-0.15,0.37,0.26,-0.83,0.00,-0.11,0.00
7.392,-0.01,1.05,0.32,-0.15,0.37,0.26,-0.23,-0.03,-0.24,0.00
7.393,-0.01,1.05,0.32,-0.31,0.86,1.13,-0.23,-0.03,-0.24,0.00
7.415,-0.05,0.92,0.26,-0.31,0.86,1.13,-0.23,-0.03,-0.24,0.00
7.455,-0.05,0.92,0.26,-0.31,0.86,1.13,0.47,-0.05,-0.32,0.00
7.455,-0.05,0.92,0.26,-0.30,-0.29,-2.13,0.47,-0.05,-0.32,0.00
7.478,0.05,0.87,0.20,-0.30,-0.29,-2.13,0.47,-0.05,-0.32,0.00
7.511,0.05,0.87,0.20,-0.30,-0.29,-2.13,0.45,-0.09,0.26,0.00
7.515,0.05,0.87,0.20,0.61,-1.14,0.50,0.45,-0.09,0.26,0.00
7.544,0.05,0.89,0.14,0.61,-1.14,0.50,0.45,-0.09,0.26,0.00
7.589,0.05,0.89,0.14,0.61,-1.14,0.50,0.87,-0.12,0.27,0.00
7.594,0.05,0.89,0.14,0.02,-0.29,-1.63,0.87,-0.12,0.27,0.00
7.61,0.00,0.96,0.44,0.02,-0.29,-1.63,0.87,-0.12,0.27,0.00
7.658,0.00,0.96,0.44,0.02,-0.29,-1.63,-0.85,0.10,-0.05,0.00
7.692,0.00,0.96,0.44,-0.17,0.39,0.94,-0.85,0.10,-0.05,0.00
7.692,-0.10,1.08,0.18,-0.17,0.39,0.94,-0.85,0.10,-0.05,0.00
7.709,-0.10,1.08,0.18,-0.17,0.39,0.94,0.09,0.08,-0.78,0.00
7.711,-0.10,1.08,0.18,-1.33,0.86,0.91,0.09,0.08,-0.78,0.00
7.749,-0.09,0.83,0.37,-1.33,0.86,0.91,0.09,0.08,-0.78,0.00
7.775,-0.09,0.83,0.37,-1.33,0.86,0.91,0.08,0.09,-0.35,0.00
7.776,-0.09,0.83,0.37,0.55,-1.19,-2.73,0.08,0.09,-0.35,0.00
7.809,-0.03,0.87,0.07,0.55,-1.19,-2.73,0.08,0.09,-0.35,0.00
7.844,-0.03,0.87,0.07,0.55,-1.19,-2.73,0.63,-0.01,0.20,0.00
7.845,-0.03,0.87,0.07,0.67,-1.88,-0.29,0.63,-0.01,0.20,0.00
7.879,0.03,0.90,0.06,0.67,-1.88,-0.29,0.63,-0.01,0.20,0.00
7.907,0.03,0.90,0.06,0.67,-1.88,-0.29,0.29,-0.03,0.35,0.00
7.909,0.03,0.90,0.06,-0.42,0.27,1.59,0.29,-0.03,0.35,0.00
7.939,0.01,0.87,0.42,-0.42,0.27,1.59,0.29,-0.03,0.35,0.00
7.979,0.01,0.87,0.42,-0.42,0.27,1.59,-0.60,0.02,0.39,0.00
7.983,0.01,0.87,0.42,0.82,-0.25,-1.64,-0.60,0.02,0.39,0.00
8.005,-0.12,1.01,0.60,0.82,-0.25,-1.64,-0.60,0.02,0.39,0.00
8.04,-0.12,1.01,0.60,0.82,-0.25,-1.64,-1.25,0.19,-0.57,0.00
8.042,-0.12,1.01,0.60,-0.66,-0.32,-1.65,-1.25,0.19,-0.57,0.00
8.072,-0.05,1.06,-0.13,-0.66,-0.32,-1.65,-1.25,0.19,-0.57,0.00
8.113,-0.05,1.06,-0.13,-0.66,-0.32,-1.65,2.17,-0.10,-0.14,0.00
8.119,-0.05,1.06,-0.13,0.87,0.75,-0.88,2.17,-0.10,-0.14,0.00
8.137,0.16,0.75,1.19,0.87,0.75,-0.88,2.17,-0.10,-0.14,0.00
8.174,0.16,0.75,1.19,0.87,0.75,-0.88,-3.62,0.35,1.15,0.00
8.188,0.16,0.75,1.19,0.39,-1.05,1.97,-3.62,0.35,1.15,0.00
8.206,-0.03,1.23,-0.19,0.39,-1.05,1.97,-3.62,0.35,1.15,0.00
8.238,-0.03,1.23,-0.19,0.39,-1.05,1.97,0.22,-0.08,-0.10,0.00
8.24,-0.03,1.23,-0.19,-0.15,-0.92,8.12,0.22,-0.08,-0.10,0.00
8.269,-0.11,0.80,0.81,-0.15,-0.92,8.12,0.22,-0.08,-0.10,0.00
8.303,-0.11,0.80,0.81,-0.15,-0.92,8.12,1.88,-0.02,-1.10,0.00
8.305,-0.11,0.80,0.81,-1.26,1.01,-6.08,1.88,-0.02,-1.10,0.00
8.335,-0.00,0.80,0.48,-1.26,1.01,-6.08,1.88,-0.02,-1.10,0.00
8.369,-0.00,0.80,0.48,-1.26,1.01,-6.08,-0.13,-0.01,0.21,0.00
8.373,-0.00,0.80,0.48,1.87,-3.44,0.86,-0.13,-0.01,0.21,0.00
8.402,0.02,0.76,0.42,1.87,-3.44,0.86,-0.13,-0.01,0.21,0.00
8.437,0.02,0.76,0.42,1.87,-3.44,0.86,-0.49,0.10,0.05,0.00
8.439,0.02,0.76,0.42,-0.66,-1.17,-2.94,-0.49,0.10,0.05,0.00
8.473,-0.02,0.85,-0.05,-0.66,-1.17,-2.94,-0.49,0.10,0.05,0.00
8.517,-0.02,0.85,-0.05,-0.66,-1.17,-2.94,1.62,-0.07,-0.25,0.00
8.524,-0.02,0.85,-0.05,-0.27,-0.44,-1.14,1.62,-0.07,-0.25,0.00
8.533,0.06,0.88,0.14,-0.27,-0.44,-1.14,1.62,-0.07,-0.25,0.00
8.568,0.06,0.88,0.14,-0.27,-0.44,-1.14,1.10,-0.12,0.55,0.00
8.57,0.06,0.88,0.14,0.95,0.16,-2.99,1.10,-0.12,0.55,0.00
8.599,0.04,0.91,1.16,0.95,0.16,-2.99,1.10,-0.12,0.55,0.00
8.634,0.04,0.91,1.16,0.95,0.16,-2.99,-3.21,0.59,-0.05,0.00
8.636,0.04,0.91,1.16,-1.66,0.98,-2.43,-3.21,0.59,-0.05,0.00
8.666,-0.14,1.08,-0.24,-1.66,0.98,-2.43,-3.21,0.59,-0.05,0.00
8.736,-0.14,1.08,-0.24,-1.66,0.98,-2.43,1.92,-0.06,-1.09,0.00
8.74,-0.14,1.08,-0.24,-1.14,1.17,2.49,1.92,-0.06,-1.09,0.00
8.743,0.03,0.74,0.58,-1.14,1.17,2.49,1.92,-0.06,-1.09,0.00
8.77,0.03,0.74,0.58,-1.14,1.17,2.49,-1.13,0.10,0.18,0.00
8.785,0.03,0.74,0.58,0.43,-0.68,-1.04,-1.13,0.10,0.18,0.00
8.813,0.06,0.98,-0.17,0.43,-0.68,-1.04,-1.13,0.10,0.18,0.00
8.839,0.06,0.98,-0.17,0.43,-0.68,-1.04,0.41,-0.18,0.77,0.00
8.841,0.06,0.98,-0.17,1.41,-0.54,8.39,0.41,-0.18,0.77,0.00
8.867,0.07,0.75,1.51,1.41,-0.54,8.39,0.41,-0.18,0.77,0.00
8.897,0.07,0.75,1.51,1.41,-0.54,8.39,-2.26,0.43,0.64,0.00
8.898,0.07,0.75,1.51,-0.94,1.61,-7.54,-2.26,0.43,0.64,0.00
8.931,-0.11,1.17,-0.24,-0.94,1.61,-7.54,-2.26,0.43,0.64,0.00
8.963,-0.11,1.17,-0.24,-0.94,1.61,-7.54,1.10,-0.18,-0.27,0.00
8.967,-0.11,1.17,-0.24,0.87,-0.53,2.71,1.10,-0.18,-0.27,0.00
8.996,0.05,0.95,0.14,0.87,-0.53,2.71,1.10,-0.18,-0.27,0.00
9.035,0.05,0.95,0.14,0.87,-0.53,2.71,0.75,-0.11,0.10,0.00
9.037,0.05,0.95,0.14,-0.61,0.08,4.59,0.75,-0.11,0.10,0.00
9.062,0.08,0.75,0.79,-0.61,0.08,4.59,0.75,-0.11,0.10,0.00
9.109,0.08,0.75,0.79,-0.61,0.08,4.59,-0.69,0.16,0.52,0.00
9.119,0.08,0.75,0.79,1.01,-1.30,-3.47,-0.69,0.16,0.52,0.00
9.136,-0.10,0.97,0.82,1.01,-1.30,-3.47,-0.69,0.16,0.52,0.00
9.164,-0.10,0.97,0.82,1.01,-1.30,-3.47,-2.17,0.73,-0.43,0.00
9.166,-0.10,0.97,0.82,-1.76,-2.01,1.40,-2.17,0.73,-0.43,0.00
9.207,-0.14,0.83,-0.61,-1.76,-2.01,1.40,-2.17,0.73,-0.43,0.00
9.23,-0.14,0.83,-0.61,-1.76,-2.01,1.40,4.62,-0.16,-1.56,0.00
9.231,-0.14,0.83,-0.61,-1.30,0.71,-8.28,4.62,-0.16,-1.56,0.00
9.259,0.10,0.69,0.72,-1.30,0.71,-8.28,4.62,-0.16,-1.56,0.00
9.296,0.10,0.69,0.72,-1.30,0.71,-8.28,-0.75,-0.01,0.68,0.00
9.298,0.10,0.69,0.72,2.61,-2.86,4.08,-0.75,-0.01,0.68,0.00
9.325,-0.15,1.07,0.64,2.61,-2.86,4.08,-0.75,-0.01,0.68,0.00
9.362,-0.15,1.07,0.64,2.61,-2.86,4.08,-1.44,0.24,0.02,0.00
9.364,-0.15,1.07,0.64,-0.59,1.42,2.01,-1.44,0.24,0.02,0.00
9.401,0.10,0.95,0.37,-0.59,1.42,2.01,-1.44,0.24,0.02,0.00
9.431,0.10,0.95,0.37,-0.59,1.42,2.01,-1.45,0.21,0.67,0.00
9.432,0.10,0.95,0.37,0.35,-0.48,3.06,-1.45,0.21,0.67,0.00
9.459,0.01,0.76,-0.09,0.35,-0.48,3.06,-1.45,0.21,0.67,0.00
9.492,0.01,0.76,-0.09,0.35,-0.48,3.06,1.83,-0.39,0.08,0.00
9.494,0.01,0.76,-0.09,0.11,0.12,-8.17,1.83,-0.39,0.08,0.00
9.523,0.19,0.80,0.60,0.11,0.12,-8.17,1.83,-0.39,0.08,0.00
9.557,0.19,0.80,0.60,0.11,0.12,-8.17,-1.40,-0.00,1.49,0.00
9.558,0.19,0.80,0.60,1.76,-1.45,5.43,-1.40,-0.00,1.49,0.00
9.589,0.05,0.95,0.49,1.76,-1.45,5.43,-1.40,-0.00,1.49,0.00
9.625,0.05,0.95,0.49,1.76,-1.45,5.43,-0.50,0.14,-0.45,0.00
9.627,0.05,0.95,0.49,-1.48,1.39,1.76,-0.50,0.14,-0.45,0.00
9.655,-0.18,0.94,0.47,-1.48,1.39,1.76,-0.50,0.14,-0.45,0.00
9.701,-0.18,0.94,0.47,-1.48,1.39,1.76,0.04,0.18,-1.27,0.00
9.703,-0.18,0.94,0.47,-1.82,0.80,-0.45,0.04,0.18,-1.27,0.00
9.722,-0.16,0.90,0.40,-1.82,0.80,-0.45,0.04,0.18,-1.27,0.00
9.759,-0.16,0.90,0.40,-1.82,0.80,-0.45,0.70,0.00,-1.03,0.00
9.761,-0.16,0.90,0.40,0.01,-0.24,-1.36,0.70,0.00,-1.03,0.00
9.793,-0.01,0.83,0.47,0.01,-0.24,-1.36,0.70,0.00,-1.03,0.00
9.831,-0.01,0.83,0.47,0.01,-0.24,-1.36,-0.36,-0.01,0.03,0.00
9.832,-0.01,0.83,0.47,-0.46,-0.97,1.32,-0.36,-0.01,0.03,0.00
9.854,-0.07,0.76,0.04,-0.46,-0.97,1.32,-0.36,-0.01,0.03,0.00
9.887,-0.07,0.76,0.04,-0.46,-0.97,1.32,1.48,-0.14,-0.29,0.00
9.888,-0.07,0.76,0.04,0.62,-0.85,-3.44,1.48,-0.14,-0.29,0.00
9.92,-0.05,0.79,0.68,0.62,-0.85,-3.44,1.48,-0.14,-0.29,0.00
9.953,-0.05,0.79,0.68,0.62,-0.85,-3.44,-0.62,0.00,0.20,0.00
9.955,-0.05,0.79,0.68,0.38,-1.40,-0.40,-0.62,0.00,0.20,0.00
9.985,-0.11,0.90,0.23,0.38,-1.40,-0.40,-0.62,0.00,0.20,0.00
10.022,-0.11,0.90,0.23,0.38,-1.40,-0.40,0.47,-0.01,-0.42,0.00
10.024,-0.11,0.90,0.23,-0.95,0.15,0.90,0.47,-0.01,-0.42,0.00
10.052,-0.03,0.80,0.16,-0.95,0.15,0.90,0.47,-0.01,-0.42,0.00
10.085,-0.03,0.80,0.16,-0.95,0.15,0.90,0.25,-0.06,0.30,0.00
10.09,-0.03,0.80,0.16,0.51,0.33,1.46,0.25,-0.06,0.30,0.00
10.133,0.04,0.93,0.66,0.51,0.33,1.46,0.25,-0.06,0.30,0.00
10.156,0.04,0.93,0.66,0.51,0.33,1.46,-1.05,-0.01,0.82,0.00
10.157,0.04,0.93,0.66,1.03,0.68,-0.43,-1.05,-0.01,0.82,0.00
10.198,0.03,1.01,0.64,1.03,0.68,-0.43,-1.05,-0.01,0.82,0.00
10.22,0.03,1.01,0.64,1.03,0.68,-0.43,-0.66,0.01,0.59,0.00
10.222,0.03,1.01,0.64,0.26,1.18,1.83,-0.66,0.01,0.59,0.00
10.249,-0.02,1.00,0.65,0.26,1.18,1.83,-0.66,0.01,0.59,0.00
10.283,-0.02,1.00,0.65,0.26,1.18,1.83,-0.37,0.14,-0.03,0.00
10.287,-0.02,1.00,0.65,-0.34,0.58,-0.68,-0.37,0.14,-0.03,0.00
10.327,0.00,0.87,0.48,-0.34,0.58,-0.68,-0.37,0.14,-0.03,0.00
10.356,0.00,0.87,0.48,-0.34,0.58,-0.68,-0.13,0.05,0.05,0.00
10.358,0.00,0.87,0.48,0.39,-0.77,1.60,-0.13,0.05,0.05,0.00
10.385,0.06,0.72,0.39,0.39,-0.77,1.60,-0.13,0.05,0.05,0.00
10.419,0.06,0.72,0.39,0.39,-0.77,1.60,0.08,-0.02,0.32,0.00
10.421,0.06,0.72,0.39,0.02,-0.98,-1.74,0.08,-0.02,0.32,0.00
10.447,0.03,0.78,0.43,0.02,-0.98,-1.74,0.08,-0.02,0.32,0.00
10.481,0.03,0.78,0.43,0.02,-0.98,-1.74,0.26,-0.03,0.21,0.00
10.484,0.03,0.78,0.43,0.30,-1.06,-0.92,0.26,-0.03,0.21,0.00
10.514,-0.04,0.91,0.33,0.30,-1.06,-0.92,0.26,-0.03,0.21,0.00
10.547,-0.04,0.91,0.33,0.30,-1.06,-0.92,0.90,-0.09,-0.60,0.00
10.549,-0.04,0.91,0.33,-0.77,0.46,-0.40,0.90,-0.09,-0.60,0.00
10.579,0.07,0.94,0.54,-0.77,0.46,-0.40,0.90,-0.09,-0.60,0.00
10.618,0.07,0.94,0.54,-0.77,0.46,-0.40,-0.27,0.03,0.15,0.00
10.62,0.07,0.94,0.54,0.77,0.28,0.58,-0.27,0.03,0.15,0.00
10.645,0.03,1.00,0.48,0.77,0.28,0.58,-0.27,0.03,0.15,0.00
10.679,0.03,1.00,0.48,0.77,0.28,0.58,-0.29,-0.00,0.27,0.00
10.68,0.03,1.00,0.48,0.18,0.88,1.54,-0.29,-0.00,0.27,0.00
10.717,0.07,0.92,0.61,0.18,0.88,1.54,-0.29,-0.00,0.27,0.00
10.762,0.07,0.92,0.61,0.18,0.88,1.54,-0.42,0.14,0.00,0.00
10.763,0.07,0.92,0.61,-0.91,0.58,0.15,-0.42,0.14,0.00,0.00
10.78,-0.05,0.84,0.61,-0.91,0.58,0.15,-0.42,0.14,0.00,0.00
10.821,-0.05,0.84,0.61,-0.91,0.58,0.15,-0.56,0.22,-0.45,0.00
10.823,-0.05,0.84,0.61,-0.17,-0.69,-0.39,-0.56,0.22,-0.45,0.00
10.844,-0.08,0.81,0.33,-0.17,-0.69,-0.39,-0.56,0.22,-0.45,0.00
10.877,-0.08,0.81,0.33,-0.17,-0.69,-0.39,0.64,-0.02,-0.66,0.00
10.878,-0.08,0.81,0.33,-0.71,-0.49,-1.24,0.64,-0.02,-0.66,0.00
10.91,-0.07,0.79,0.44,-0.71,-0.49,-1.24,0.64,-0.02,-0.66,0.00
10.943,-0.07,0.79,0.44,-0.71,-0.49,-1.24,0.49,-0.00,-0.30,0.00
10.945,-0.07,0.79,0.44,0.10,-0.53,-1.35,0.49,-0.00,-0.30,0.00
10.975,-0.09,0.85,0.39,0.10,-0.53,-1.35,0.49,-0.00,-0.30,0.00
11.012,-0.09,0.85,0.39,0.10,-0.53,-1.35,0.49,0.01,-0.34,0.00
11.015,-0.09,0.85,0.39,-0.34,-0.51,-0.86,0.49,0.01,-0.34,0.00
11.043,0.00,0.86,0.24,-0.34,-0.51,-0.86,0.49,0.01,-0.34,0.00
11.075,0.00,0.86,0.24,-0.34,-0.51,-0.86,1.04,-0.13,0.43,0.00
11.077,0.00,0.86,0.24,1.15,-0.58,-1.29,1.04,-0.13,0.43,0.00
11.108,0.13,0.86,0.35,1.15,-0.58,-1.29,1.04,-0.13,0.43,0.00
11.141,0.13,0.86,0.35,1.15,-0.58,-1.29,0.18,-0.13,1.21,0.00
11.143,0.13,0.86,0.35,1.02,-0.54,-0.11,0.18,-0.13,1.21,0.00
11.173,0.07,0.93,0.50,1.02,-0.54,-0.11,0.18,-0.13,1.21,0.00
11.209,0.07,0.93,0.50,1.02,-0.54,-0.11,-1.17,0.22,0.45,0.00
11.212,0.07,0.93,0.50,-0.06,-0.23,1.99,-1.17,0.22,0.45,0.00
11.239,0.04,0.92,0.38,-0.06,-0.23,1.99,-1.17,0.22,0.45,0.00
11.273,0.04,0.92,0.38,-0.06,-0.23,1.99,0.20,-0.05,-0.16,0.00
11.274,0.04,0.92,0.38,-0.41,0.73,-1.49,0.20,-0.05,-0.16,0.00
11.306,0.04,0.94,0.69,-0.41,0.73,-1.49,0.20,-0.05,-0.16,0.00
11.339,0.04,0.94,0.69,-0.41,0.73,-1.49,-1.23,0.34,-0.01,0.00
11.341,0.04,0.94,0.69,-0.12,0.11,2.62,-1.23,0.34,-0.01,0.00
11.372,-0.08,0.88,0.24,-0.12,0.11,2.62,-1.23,0.34,-0.01,0.00
11.419,-0.08,0.88,0.24,-0.12,0.11,2.62,0.68,-0.04,-0.64,0.00
11.421,-0.08,0.88,0.24,-0.29,0.08,-2.21,0.68,-0.04,-0.64,0.00
11.437,-0.01,0.84,0.55,-0.29,0.08,-2.21,0.68,-0.04,-0.64,0.00
11.471,-0.01,0.84,0.55,-0.29,0.08,-2.21,-0.45,0.09,-0.01,0.00
11.474,-0.01,0.84,0.55,0.38,-1.11,-0.34,-0.45,0.09,-0.01,0.00
11.503,0.02,0.90,0.06,0.38,-1.11,-0.34,-0.45,0.09,-0.01,0.00
11.537,0.02,0.90,0.06,0.38,-1.11,-0.34,1.39,-0.32,-0.15,0.00
11.539,0.02,0.90,0.06,-0.20,-0.10,-0.72,1.39,-0.32,-0.15,0.00
11.576,-0.00,0.84,0.63,-0.20,-0.10,-0.72,1.39,-0.32,-0.15,0.00
11.665,-0.00,0.84,0.63,-0.20,-0.10,-0.72,-0.80,0.16,-0.04,0.00
11.679,-0.00,0.84,0.63,-0.19,0.52,-0.03,-0.80,0.16,-0.04,0.00
11.679,-0.10,0.99,0.60,-0.19,0.52,-0.03,-0.80,0.16,-0.04,0.00
11.681,-0.10,0.99,0.60,-0.19,0.52,-0.03,-0.32,0.11,-0.48,0.00
11.682,-0.10,0.99,0.60,-1.04,0.97,-0.47,-0.32,0.11,-0.48,0.00
11.702,-0.03,1.01,0.20,-1.04,0.97,-0.47,-0.32,0.11,-0.48,0.00
11.756,-0.03,1.01,0.20,-1.04,0.97,-0.47,0.90,-0.14,-0.16,0.00
11.758,-0.03,1.01,0.20,0.35,0.89,0.22,0.90,-0.14,-0.16,0.00
11.767,0.09,0.86,0.85,0.35,0.89,0.22,0.90,-0.14,-0.16,0.00
11.818,0.09,0.86,0.85,0.35,0.89,0.22,-1.57,0.24,0.73,0.00
11.819,0.09,0.86,0.85,0.39,-0.29,-1.83,-1.57,0.24,0.73,0.00
11.834,0.05,0.91,-0.01,0.39,-0.29,-1.83,-1.57,0.24,0.73,0.00
11.869,0.05,0.91,-0.01,0.39,-0.29,-1.83,0.72,-0.21,0.36,0.00
11.871,0.05,0.91,-0.01,0.84,-0.74,3.00,0.72,-0.21,0.36,0.00
11.899,0.12,0.81,0.41,0.84,-0.74,3.00,0.72,-0.21,0.36,0.00
11.938,0.12,0.81,0.41,0.84,-0.74,3.00,-0.34,-0.05,0.68,0.00
11.94,0.12,0.81,0.41,-0.27,0.45,-2.21,-0.34,-0.05,0.68,0.00
11.966,0.07,0.90,0.49,-0.27,0.45,-2.21,-0.34,-0.05,0.68,0.00
12.021,0.07,0.90,0.49,-0.27,0.45,-2.21,-0.38,0.08,0.04,0.00
12.024,0.07,0.90,0.49,-0.05,-0.35,2.32,-0.38,0.08,0.04,0.00
12.043,-0.03,0.87,0.69,-0.05,-0.35,2.32,-0.38,0.08,0.04,0.00
12.065,-0.03,0.87,0.69,-0.05,-0.35,2.32,-0.03,0.07,-0.42,0.00
12.068,-0.03,0.87,0.69,-0.11,0.85,-2.88,-0.03,0.07,-0.42,0.00
12.097,-0.01,1.00,0.52,-0.11,0.85,-2.88,-0.03,0.07,-0.42,0.00
12.131,-0.01,1.00,0.52,-0.11,0.85,-2.88,-0.80,0.30,-0.39,0.00
12.133,-0.01,1.00,0.52,-1.08,-0.28,3.50,-0.80,0.30,-0.39,0.00
12.163,-0.03,0.80,-0.02,-1.08,-0.28,3.50,-0.80,0.30,-0.39,0.00
12.234,-0.03,0.80,-0.02,-1.08,-0.28,3.50,1.98,-0.33,-0.69,0.00
12.235,-0.03,0.80,-0.02,-0.18,-0.04,-3.77,1.98,-0.33,-0.69,0.00
12.236,0.02,0.69,0.66,-0.18,-0.04,-3.77,1.98,-0.33,-0.69,0.00
12.263,0.02,0.69,0.66,-0.18,-0.04,-3.77,0.24,-0.07,0.15,0.00
12.264,0.02,0.69,0.66,0.36,-0.96,-3.07,0.24,-0.07,0.15,0.00
12.295,-0.04,0.92,0.16,0.36,-0.96,-3.07,0.24,-0.07,0.15,0.00
12.329,-0.04,0.92,0.16,0.36,-0.96,-3.07,0.18,-0.09,0.04,0.00
12.33,-0.04,0.92,0.16,0.46,-0.66,3.25,0.18,-0.09,0.04,0.00
12.362,0.11,0.82,0.81,0.46,-0.66,3.25,0.18,-0.09,0.04,0.00
12.438,0.11,0.82,0.81,0.46,-0.66,3.25,-1.56,0.23,0.88,0.00
12.445,0.11,0.82,0.81,-0.07,1.12,-0.25,-1.56,0.23,0.88,0.00
12.446,-0.04,0.99,0.54,-0.07,1.12,-0.25,-1.56,0.23,0.88,0.00
12.466,-0.04,0.99,0.54,-0.07,1.12,-0.25,-0.23,0.02,0.01,0.00
12.468,-0.04,0.99,0.54,-0.54,1.17,0.41,-0.23,0.02,0.01,0.00
12.493,0.03,0.90,0.40,-0.54,1.17,0.41,-0.23,0.02,0.01,0.00
12.546,0.03,0.90,0.40,-0.54,1.17,0.41,0.66,-0.18,-0.05,0.00
12.548,0.03,0.90,0.40,0.32,0.16,-1.53,0.66,-0.18,-0.05,0.00
12.559,0.03,0.78,0.52,0.32,0.16,-1.53,0.66,-0.18,-0.05,0.00
12.601,0.03,0.78,0.52,0.32,0.16,-1.53,-0.17,0.13,-0.14,0.00
12.603,0.03,0.78,0.52,-0.70,-1.35,-0.78,-0.17,0.13,-0.14,0.00
12.625,-0.11,0.74,0.28,-0.70,-1.35,-0.78,-0.17,0.13,-0.14,0.00
12.659,-0.11,0.74,0.28,-0.70,-1.35,-0.78,1.05,-0.05,-0.76,0.00
12.662,-0.11,0.74,0.28,-0.24,-1.43,-2.92,1.05,-0.05,-0.76,0.00
12.694,0.05,0.75,0.24,-0.24,-1.43,-2.92,1.05,-0.05,-0.76,0.00
12.725,0.05,0.75,0.24,-0.24,-1.43,-2.92,0.87,-0.15,0.26,0.00
12.733,0.05,0.75,0.24,0.07,-0.62,0.47,0.87,-0.15,0.26,0.00
12.768,-0.00,0.90,0.40,0.07,-0.62,0.47,0.87,-0.15,0.26,0.00
12.799,-0.00,0.90,0.40,0.07,-0.62,0.47,0.44,-0.10,-0.02,0.00
12.8,-0.00,0.90,0.40,-0.21,0.62,-0.68,0.44,-0.10,-0.02,0.00
12.825,-0.03,0.99,0.94,-0.21,0.62,-0.68,0.44,-0.10,-0.02,0.00
12.861,-0.03,0.99,0.94,-0.21,0.62,-0.68,-1.40,0.21,0.03,0.00
12.863,-0.03,0.99,0.94,-0.16,0.75,5.15,-1.40,0.21,0.03,0.00
12.889,-0.06,1.15,0.44,-0.16,0.75,5.15,-1.40,0.21,0.03,0.00
12.924,-0.06,1.15,0.44,-0.16,0.75,5.15,0.01,-0.02,-0.12,0.00
12.925,-0.06,1.15,0.44,0.01,1.85,1.06,0.01,-0.02,-0.12,0.00
12.958,0.12,0.97,0.49,0.01,1.85,1.06,0.01,-0.02,-0.12,0.00
13.021,0.12,0.97,0.49,0.01,1.85,1.06,-0.21,-0.03,0.64,0.00
13.023,0.12,0.97,0.49,0.82,0.27,0.73,-0.21,-0.03,0.64,0.00
13.024,0.08,0.88,0.60,0.82,0.27,0.73,-0.21,-0.03,0.64,0.00
13.057,0.08,0.88,0.60,0.82,0.27,0.73,-1.06,0.26,0.34,0.00
13.059,0.08,0.88,0.60,-0.56,-0.19,1.98,-1.06,0.26,0.34,0.00
13.087,-0.13,0.91,0.46,-0.56,-0.19,1.98,-1.06,0.26,0.34,0.00
13.121,-0.13,0.91,0.46,-0.56,-0.19,1.98,-0.25,0.27,-1.01,0.00
13.124,-0.13,0.91,0.46,-1.34,0.61,0.20,-0.25,0.27,-1.01,0.00
13.157,-0.09,0.83,0.63,-1.34,0.61,0.20,-0.25,0.27,-1.01,0.00
13.215,-0.09,0.83,0.63,-1.34,0.61,0.20,-0.32,0.20,-0.79,0.00
13.22,-0.09,0.83,0.63,-0.74,-0.49,-1.62,-0.32,0.20,-0.79,0.00
13.223,-0.11,0.79,0.16,-0.74,-0.49,-1.62,-0.32,0.20,-0.79,0.00
13.255,-0.11,0.79,0.16,-0.74,-0.49,-1.62,1.64,-0.20,-0.45,0.00
13.257,-0.11,0.79,0.16,0.50,-0.65,-1.15,1.64,-0.20,-0.45,0.00
13.285,-0.10,0.75,0.61,0.50,-0.65,-1.15,1.64,-0.20,-0.45,0.00
13.319,-0.10,0.75,0.61,0.50,-0.65,-1.15,-0.56,0.09,0.15,0.00
13.321,-0.10,0.75,0.61,-0.24,-1.26,1.36,-0.56,0.09,0.15,0.00
13.352,-0.00,0.89,0.10,-0.24,-1.26,1.36,-0.56,0.09,0.15,0.00
13.387,-0.00,0.89,0.10,-0.24,-1.26,1.36,0.86,-0.16,0.35,0.00
13.388,-0.00,0.89,0.10,0.53,-0.79,1.65,0.86,-0.16,0.35,0.00
13.431,0.05,0.86,0.32,0.53,-0.79,1.65,0.86,-0.16,0.35,0.00
13.453,0.05,0.86,0.32,0.53,-0.79,1.65,-0.53,-0.03,0.67,0.00
13.455,0.05,0.86,0.32,-0.32,0.75,2.03,-0.53,-0.03,0.67,0.00
13.483,0.11,0.88,0.45,-0.32,0.75,2.03,-0.53,-0.03,0.67,0.00
13.522,0.11,0.88,0.45,-0.32,0.75,2.03,-0.38,-0.06,0.53,0.00
13.524,0.11,0.88,0.45,0.82,0.68,-0.57,-0.38,-0.06,0.53,0.00
13.563,-0.16,1.01,0.78,0.82,0.68,-0.57,-0.38,-0.06,0.53,0.00
13.589,-0.16,1.01,0.78,0.82,0.68,-0.57,-0.38,0.14,-0.47,0.00
13.591,-0.16,1.01,0.78,-1.22,0.86,-2.36,-0.38,0.14,-0.47,0.00
13.615,-0.14,0.99,0.37,-1.22,0.86,-2.36,-0.38,0.14,-0.47,0.00
13.651,-0.14,0.99,0.37,-1.22,0.86,-2.36,0.39,-0.00,-0.76,0.00
13.652,-0.14,0.99,0.37,-0.32,0.12,1.61,0.39,-0.00,-0.76,0.00
13.686,-0.02,0.83,0.20,-0.32,0.12,1.61,0.39,-0.00,-0.76,0.00
13.72,-0.02,0.83,0.20,-0.32,0.12,1.61,0.51,-0.04,-0.08,0.00
13.722,-0.02,0.83,0.20,-0.58,0.02,0.09,0.51,-0.04,-0.08,0.00
13.764,0.03,0.72,0.50,-0.58,0.02,0.09,0.51,-0.04,-0.08,0.00
13.801,0.03,0.72,0.50,-0.58,0.02,0.09,-0.26,-0.01,0.32,0.00
13.802,0.03,0.72,0.50,0.43,-0.08,0.05,-0.26,-0.01,0.32,0.00
13.816,-0.04,0.92,0.59,0.43,-0.08,0.05,-0.26,-0.01,0.32,0.00
13.847,-0.04,0.92,0.59,0.43,-0.08,0.05,-0.21,-0.03,0.27,0.00
13.85,-0.04,0.92,0.59,0.04,0.72,0.50,-0.21,-0.03,0.27,0.00
13.88,-0.10,1.03,0.76,0.04,0.72,0.50,-0.21,-0.03,0.27,0.00
13.913,-0.10,1.03,0.76,0.04,0.72,0.50,-1.23,0.26,-0.12,0.00
13.915,-0.10,1.03,0.76,-0.45,1.01,3.44,-1.23,0.26,-0.12,0.00
13.947,-0.10,0.84,0.05,-0.45,1.01,3.44,-1.23,0.26,-0.12,0.00
13.982,-0.10,0.84,0.05,-0.45,1.01,3.44,1.66,-0.20,-0.58,0.00
13.983,-0.10,0.84,0.05,-0.38,-0.14,-2.54,1.66,-0.20,-0.58,0.00
14.027,-0.02,0.67,0.65,-0.38,-0.14,-2.54,1.66,-0.20,-0.58,0.00
14.045,-0.02,0.67,0.65,-0.38,-0.14,-2.54,-0.35,0.05,0.18,0.00
14.045,-0.02,0.67,0.65,0.45,-1.74,-1.85,-0.35,0.05,0.18,0.00
14.077,0.01,0.85,0.15,0.45,-1.74,-1.85,-0.35,0.05,0.18,0.00
14.118,0.01,0.85,0.15,0.45,-1.74,-1.85,1.36,-0.26,0.44,0.00
14.121,0.01,0.85,0.15,0.65,-0.75,-0.63,1.36,-0.26,0.44,0.00
14.154,0.08,0.83,0.48,0.65,-0.75,-0.63,1.36,-0.26,0.44,0.00
14.18,0.08,0.83,0.48,0.65,-0.75,-0.63,-0.57,0.02,0.85,0.00
14.182,0.08,0.83,0.48,-0.38,0.17,2.94,-0.57,0.02,0.85,0.00
14.21,-0.03,0.90,0.23,-0.38,0.17,2.94,-0.57,0.02,0.85,0.00
14.251,-0.03,0.90,0.23,-0.38,0.17,2.94,0.54,-0.05,-0.25,0.00
14.253,-0.03,0.90,0.23,-0.84,0.85,-2.42,0.54,-0.05,-0.25,0.00
14.276,-0.06,0.91,0.61,-0.84,0.85,-2.42,0.54,-0.05,-0.25,0.00
14.309,-0.06,0.91,0.61,-0.84,0.85,-2.42,-0.42,0.10,-0.01,0.00
14.31,-0.06,0.91,0.61,0.85,-0.66,0.27,-0.42,0.10,-0.01,0.00
14.347,-0.02,0.89,0.53,0.85,-0.66,0.27,-0.42,0.10,-0.01,0.00
14.381,-0.02,0.89,0.53,0.85,-0.66,0.27,-0.38,0.08,0.13,0.00
14.382,-0.02,0.89,0.53,-0.11,-0.28,1.01,-0.38,0.08,0.13,0.00
14.41,-0.08,0.86,0.45,-0.11,-0.28,1.01,-0.38,0.08,0.13,0.00
14.446,-0.08,0.86,0.45,-0.11,-0.28,1.01,-0.12,0.07,-0.24,0.00
14.449,-0.08,0.86,0.45,-0.02,-0.58,-1.31,-0.12,0.07,-0.24,0.00
14.476,0.06,0.85,0.27,-0.02,-0.58,-1.31,-0.12,0.07,-0.24,0.00
14.509,0.06,0.85,0.27,-0.02,-0.58,-1.31,0.70,-0.17,0.49,0.00
14.51,0.06,0.85,0.27,0.73,-0.13,0.27,0.70,-0.17,0.49,0.00
14.539,0.12,0.90,0.63,0.73,-0.13,0.27,0.70,-0.17,0.49,0.00
14.577,0.12,0.90,0.63,0.73,-0.13,0.27,-1.04,0.14,0.92,0.00
14.579,0.12,0.90,0.63,0.56,0.23,1.60,-1.04,0.14,0.92,0.00
14.608,0.03,0.95,0.29,0.56,0.23,1.60,-1.04,0.14,0.92,0.00
14.641,0.03,0.95,0.29,0.56,0.23,1.60,0.48,-0.18,0.01,0.00
14.644,0.03,0.95,0.29,-0.56,1.13,0.74,0.48,-0.18,0.01,0.00
14.676,0.15,0.85,0.80,-0.56,1.13,0.74,0.48,-0.18,0.01,0.00
14.707,0.15,0.85,0.80,-0.56,1.13,0.74,-0.92,0.19,0.39,0.00
14.709,0.15,0.85,0.80,0.40,0.67,0.34,-0.92,0.19,0.39,0.00
14.739,-0.02,1.03,0.62,0.40,0.67,0.34,-0.92,0.19,0.39,0.00
14.784,-0.02,1.03,0.62,0.40,0.67,0.34,-0.36,0.16,-0.51,0.00
14.785,-0.02,1.03,0.62,-1.30,0.30,3.24,-0.36,0.16,-0.51,0.00
14.807,-0.14,0.83,0.64,-1.30,0.30,3.24,-0.36,0.16,-0.51,0.00
14.837,-0.14,0.83,0.64,-1.30,0.30,3.24,0.94,-0.00,-1.35,0.00
14.838,-0.14,0.83,0.64,-1.07,0.47,-4.54,0.94,-0.00,-1.35,0.00
14.87,-0.14,0.78,0.88,-1.07,0.47,-4.54,0.94,-0.00,-1.35,0.00
14.903,-0.14,0.78,0.88,-1.07,0.47,-4.54,-1.12,0.35,-0.62,0.00
14.904,-0.14,0.78,0.88,-0.27,-1.14,2.01,-1.12,0.35,-0.62,0.00
14.936,-0.00,0.83,-0.14,-0.27,-1.14,2.01,-1.12,0.35,-0.62,0.00
14.972,-0.00,0.83,-0.14,-0.27,-1.14,2.01,2.16,-0.29,-0.02,0.00
14.974,-0.00,0.83,-0.14,0.29,0.17,-0.22,2.16,-0.29,-0.02,0.00
15.027,0.08,0.66,0.76,0.29,0.17,-0.22,2.16,-0.29,-0.02,0.00
15.035,0.08,0.66,0.76,0.29,0.17,-0.22,0.97,-0.28,0.79,0.00
15.035,0.08,0.66,0.76,0.71,-0.34,-6.17,0.97,-0.28,0.79,0.00
15.068,0.08,0.91,0.47,0.71,-0.34,-6.17,0.97,-0.28,0.79,0.00
15.101,0.08,0.91,0.47,0.71,-0.34,-6.17,0.84,-0.23,0.80,0.00
15.102,0.08,0.91,0.47,2.19,-1.28,2.74,0.84,-0.23,0.80,0.00
15.144,0.13,0.93,0.79,2.19,-1.28,2.74,0.84,-0.23,0.80,0.00
15.174,0.13,0.93,0.79,2.19,-1.28,2.74,-1.74,0.32,1.07,0.00
15.175,0.13,0.93,0.79,-0.36,0.38,-0.63,-1.74,0.32,1.07,0.00
15.199,-0.02,0.94,0.35,-0.36,0.38,-0.63,-1.74,0.32,1.07,0.00
15.233,-0.02,0.94,0.35,-0.36,0.38,-0.63,-0.64,0.32,-0.71,0.00
15.236,-0.02,0.94,0.35,-1.41,0.46,3.99,-0.64,0.32,-0.71,0.00
15.268,-0.13,0.89,0.84,-1.41,0.46,3.99,-0.64,0.32,-0.71,0.00
15.301,-0.13,0.89,0.84,-1.41,0.46,3.99,-0.36,0.35,-1.13,0.00
15.303,-0.13,0.89,0.84,-0.92,0.51,-2.60,-0.36,0.35,-1.13,0.00
15.332,-0.09,0.92,0.55,-0.92,0.51,-2.60,-0.36,0.35,-1.13,0.00
15.371,-0.09,0.92,0.55,-0.92,0.51,-2.60,0.08,0.10,-0.66,0.00
15.372,-0.09,0.92,0.55,-0.13,-0.16,1.45,0.08,0.10,-0.66,0.00
15.402,-0.12,0.80,0.50,-0.13,-0.16,1.45,0.08,0.10,-0.66,0.00
15.451,-0.12,0.80,0.50,-0.13,-0.16,1.45,0.20,0.07,-0.51,0.00
15.452,-0.12,0.80,0.50,-0.44,-0.34,-1.99,0.20,0.07,-0.51,0.00
15.463,-0.05,0.82,0.36,-0.44,-0.34,-1.99,0.20,0.07,-0.51,0.00
15.497,-0.05,0.82,0.36,-0.44,-0.34,-1.99,0.08,0.01,0.04,0.00
15.498,-0.05,0.82,0.36,0.29,-0.91,0.97,0.08,0.01,0.04,0.00
15.53,-0.03,0.82,0.26,0.29,-0.91,0.97,0.08,0.01,0.04,0.00
15.565,-0.03,0.82,0.26,0.29,-0.91,0.97,1.05,-0.20,0.22,0.00
15.567,-0.03,0.82,0.26,0.11,-0.13,-1.89,1.05,-0.20,0.22,0.00
15.596,-0.02,0.82,0.57,0.11,-0.13,-1.89,1.05,-0.20,0.22,0.00
15.629,-0.02,0.82,0.57,0.11,-0.13,-1.89,-0.15,0.00,0.33,0.00
15.632,-0.02,0.82,0.57,0.29,-0.68,-0.66,-0.15,0.00,0.33,0.00
15.662,-0.05,0.92,0.32,0.29,-0.68,-0.66,-0.15,0.00,0.33,0.00
15.695,-0.05,0.92,0.32,0.29,-0.68,-0.66,0.08,-0.04,0.29,0.00
15.697,-0.05,0.92,0.32,0.53,-0.36,1.51,0.08,-0.04,0.29,0.00
15.744,0.00,0.83,0.49,0.53,-0.36,1.51,0.08,-0.04,0.29,0.00
15.77,0.00,0.83,0.49,0.53,-0.36,1.51,0.01,-0.04,0.12,0.00
15.771,0.00,0.83,0.49,-0.64,0.31,-0.29,0.01,-0.04,0.12,0.00
15.801,-0.08,0.87,0.67,-0.64,0.31,-0.29,0.01,-0.04,0.12,0.00
15.829,-0.08,0.87,0.67,-0.64,0.31,-0.29,-0.90,0.20,-0.30,0.00
15.831,-0.08,0.87,0.67,-0.33,-0.67,1.57,-0.90,0.20,-0.30,0.00
15.859,-0.18,0.81,0.32,-0.33,-0.67,1.57,-0.90,0.20,-0.30,0.00
15.893,-0.18,0.81,0.32,-0.33,-0.67,1.57,0.39,-0.00,-0.72,0.00
15.895,-0.18,0.81,0.32,-0.37,-0.50,-1.19,0.39,-0.00,-0.72,0.00
15.926,-0.05,0.81,0.58,-0.37,-0.50,-1.19,0.39,-0.00,-0.72,0.00
15.961,-0.05,0.81,0.58,-0.37,-0.50,-1.19,-1.63,0.25,0.29,0.00
15.964,-0.05,0.81,0.58,0.10,-0.68,3.14,-1.63,0.25,0.29,0.00
15.994,-0.18,0.84,0.44,0.10,-0.68,3.14,-1.63,0.25,0.29,0.00
16.025,-0.18,0.84,0.44,0.10,-0.68,3.14,0.22,-0.00,-0.58,0.00
16.028,-0.18,0.84,0.44,-0.51,0.26,-1.62,0.22,-0.00,-0.58,0.00
16.062,-0.05,0.79,0.72,-0.51,0.26,-1.62,0.22,-0.00,-0.58,0.00
16.091,-0.05,0.79,0.72,-0.51,0.26,-1.62,-0.16,-0.01,0.04,0.00
16.093,-0.05,0.79,0.72,0.41,0.18,0.55,-0.16,-0.01,0.04,0.00
16.124,-0.11,0.97,0.35,0.41,0.18,0.55,-0.16,-0.01,0.04,0.00
16.159,-0.11,0.97,0.35,0.41,0.18,0.55,1.15,-0.22,-0.03,0.00
16.161,-0.11,0.97,0.35,0.43,0.92,0.73,1.15,-0.22,-0.03,0.00
16.189,-0.03,0.90,0.49,0.43,0.92,0.73,1.15,-0.22,-0.03,0.00
16.223,-0.03,0.90,0.49,0.43,0.92,0.73,0.29,-0.10,0.61,0.00
16.224,-0.03,0.90,0.49,0.59,-0.03,-1.06,0.29,-0.10,0.61,0.00
16.256,-0.06,0.84,0.38,0.59,-0.03,-1.06,0.29,-0.10,0.61,0.00
16.289,-0.06,0.84,0.38,0.59,-0.03,-1.06,0.58,-0.14,0.21,0.00
16.291,-0.06,0.84,0.38,0.45,-0.92,-1.30,0.58,-0.14,0.21,0.00
16.337,0.05,0.80,0.45,0.45,-0.92,-1.30,0.58,-0.14,0.21,0.00
16.359,0.05,0.80,0.45,0.45,-0.92,-1.30,-0.22,-0.01,0.67,0.00
16.36,0.05,0.80,0.45,0.45,-1.23,-0.41,-0.22,-0.01,0.67,0.00
16.387,0.01,0.79,0.33,0.45,-1.23,-0.41,-0.22,-0.01,0.67,0.00
16.421,0.01,0.79,0.33,0.45,-1.23,-0.41,0.72,-0.16,-0.01,0.00
16.424,0.01,0.79,0.33,-0.56,-0.42,-1.28,0.72,-0.16,-0.01,0.00
16.458,-0.01,0.91,0.55,-0.56,-0.42,-1.28,0.72,-0.16,-0.01,0.00
16.487,-0.01,0.91,0.55,-0.56,-0.42,-1.28,-0.26,0.09,-0.17,0.00
16.489,-0.01,0.91,0.55,-0.29,1.30,0.62,-0.26,0.09,-0.17,0.00
16.546,0.23,0.86,0.61,-0.29,1.30,0.62,-0.26,0.09,-0.17,0.00
16.562,0.23,0.86,0.61,-0.29,1.30,0.62,-0.74,0.07,0.91,0.00
16.564,0.23,0.86,0.61,0.40,0.71,-0.51,-0.74,0.07,0.91,0.00
16.588,-0.06,1.04,0.36,0.40,0.71,-0.51,-0.74,0.07,0.91,0.00
16.619,-0.06,1.04,0.36,0.40,0.71,-0.51,0.41,-0.01,-0.35,0.00
16.624,-0.06,1.04,0.36,0.67,0.34,1.59,0.41,-0.01,-0.35,0.00
16.652,0.11,0.84,0.22,0.67,0.34,1.59,0.41,-0.01,-0.35,0.00
16.685,0.11,0.84,0.22,0.67,0.34,1.59,0.99,-0.23,0.06,0.00
16.687,0.11,0.84,0.22,-1.53,0.19,-3.65,0.99,-0.23,0.06,0.00
16.741,-0.10,0.92,0.20,-1.53,0.19,-3.65,0.99,-0.23,0.06,0.00
16.759,-0.10,0.92,0.20,-1.53,0.19,-3.65,1.32,-0.04,-0.93,0.00
16.76,-0.10,0.92,0.20,0.22,-1.20,2.19,1.32,-0.04,-0.93,0.00
16.797,0.05,0.80,0.57,0.22,-1.20,2.19,1.32,-0.04,-0.93,0.00
16.824,0.05,0.80,0.57,0.22,-1.20,2.19,-1.12,0.30,0.30,0.00
16.828,0.05,0.80,0.57,2.01,-1.83,7.54,-1.12,0.30,0.30,0.00
16.849,0.23,0.77,0.57,2.01,-1.83,7.54,-1.12,0.30,0.30,0.00
16.883,0.23,0.77,0.57,2.01,-1.83,7.54,0.77,-0.40,1.07,0.00
16.886,0.23,0.77,0.57,-0.33,-0.39,-4.05,0.77,-0.40,1.07,0.00
16.916,-0.04,0.84,0.56,-0.33,-0.39,-4.05,0.77,-0.40,1.07,0.00
16.973,-0.04,0.84,0.56,-0.33,-0.39,-4.05,-0.12,0.11,-0.62,0.00
16.975,-0.04,0.84,0.56,-1.32,0.02,-2.97,-0.12,0.11,-0.62,0.00
16.993,0.07,1.12,0.29,-1.32,0.02,-2.97,-0.12,0.11,-0.62,0.00
17.015,0.07,1.12,0.29,-1.32,0.02,-2.97,-3.41,0.80,0.46,0.00
17.018,0.07,1.12,0.29,0.28,-1.23,0.31,-3.41,0.80,0.46,0.00
17.048,-0.10,0.79,0.04,0.28,-1.23,0.31,-3.41,0.80,0.46,0.00
17.081,-0.10,0.79,0.04,0.28,-1.23,0.31,2.24,-0.47,-1.13,0.00
17.083,-0.10,0.79,0.04,0.22,1.62,-3.62,2.24,-0.47,-1.13,0.00
17.114,0.15,0.81,1.17,0.22,1.62,-3.62,2.24,-0.47,-1.13,0.00
17.161,0.15,0.81,1.17,0.22,1.62,-3.62,-2.08,0.42,0.45,0.00
17.164,0.15,0.81,1.17,-1.38,1.15,0.88,-2.08,0.42,0.45,0.00
17.183,-0.09,0.76,0.44,-1.38,1.15,0.88,-2.08,0.42,0.45,0.00
17.213,-0.09,0.76,0.44,-1.38,1.15,0.88,0.04,0.13,-0.99,0.00
17.214,-0.09,0.76,0.44,-1.42,-0.63,-1.32,0.04,0.13,-0.99,0.00
17.245,-0.26,1.04,-0.12,-1.42,-0.63,-1.32,0.04,0.13,-0.99,0.00
17.279,-0.26,1.04,-0.12,-1.42,-0.63,-1.32,1.95,-0.34,-0.47,0.00
17.283,-0.26,1.04,-0.12,3.05,-1.18,2.59,1.95,-0.34,-0.47,0.00
17.313,0.20,0.74,0.28,3.05,-1.18,2.59,1.95,-0.34,-0.47,0.00
17.374,0.20,0.74,0.28,3.05,-1.18,2.59,1.43,-0.42,0.11,0.00
17.379,0.20,0.74,0.28,-1.18,1.47,-4.29,1.43,-0.42,0.11,0.00
17.379,0.03,0.77,0.69,-1.18,1.47,-4.29,1.43,-0.42,0.11,0.00
17.411,0.03,0.77,0.69,-1.18,1.47,-4.29,-0.77,0.19,0.02,0.00
17.412,0.03,0.77,0.69,-1.93,-0.32,-0.46,-0.77,0.19,0.02,0.00
17.443,0.03,0.91,0.39,-1.93,-0.32,-0.46,-0.77,0.19,0.02,0.00
17.477,0.03,0.91,0.39,-1.93,-0.32,-0.46,0.67,-0.02,-0.73,0.00
17.478,0.03,0.91,0.39,0.60,-0.08,-0.12,0.67,-0.02,-0.73,0.00
17.509,-0.06,0.98,0.64,0.60,-0.08,-0.12,0.67,-0.02,-0.73,0.00
17.561,-0.06,0.98,0.64,0.60,-0.08,-0.12,-0.64,0.17,-0.32,0.00
17.562,-0.06,0.98,0.64,-0.32,-0.09,2.73,-0.64,0.17,-0.32,0.00
17.576,-0.07,0.99,0.47,-0.32,-0.09,2.73,-0.64,0.17,-0.32,0.00
17.609,-0.07,0.99,0.47,-0.32,-0.09,2.73,-0.43,0.09,-0.15,0.00
17.612,-0.07,0.99,0.47,0.45,-0.74,0.51,-0.43,0.09,-0.15,0.00
17.666,0.04,0.77,0.52,0.45,-0.74,0.51,-0.43,0.09,-0.15,0.00
17.675,0.04,0.77,0.52,0.45,-0.74,0.51,-0.15,-0.11,0.48,0.00
17.676,0.04,0.77,0.52,0.56,0.75,-1.98,-0.15,-0.11,0.48,0.00
17.72,-0.03,0.95,0.03,0.56,0.75,-1.98,-0.15,-0.11,0.48,0.00
17.754,-0.03,0.95,0.03,0.56,0.75,-1.98,0.47,-0.20,0.11,0.00
17.755,-0.03,0.95,0.03,0.01,0.85,0.35,0.47,-0.20,0.11,0.00
17.776,0.21,0.77,0.77,0.01,0.85,0.35,0.47,-0.20,0.11,0.00
17.815,0.21,0.77,0.77,0.01,0.85,0.35,-0.07,-0.15,0.94,0.00
17.816,0.21,0.77,0.77,1.26,0.65,-1.19,-0.07,-0.15,0.94,0.00
17.839,-0.30,0.82,0.08,1.26,0.65,-1.19,-0.07,-0.15,0.94,0.00
17.876,-0.30,0.82,0.08,1.26,0.65,-1.19,0.69,-0.00,-1.42,0.00
17.878,-0.30,0.82,0.08,-2.83,-0.59,-5.63,0.69,-0.00,-1.42,0.00
17.905,0.13,0.95,0.32,-2.83,-0.59,-5.63,0.69,-0.00,-1.42,0.00
17.961,0.13,0.95,0.32,-2.83,-0.59,-5.63,-0.87,-0.10,1.87,0.00
17.962,0.13,0.95,0.32,6.66,-1.55,7.39,-0.87,-0.10,1.87,0.00
17.989,-0.01,1.06,0.73,6.66,-1.55,7.39,-0.87,-0.10,1.87,0.00
18.007,-0.01,1.06,0.73,6.66,-1.55,7.39,-2.08,0.81,0.48,0.00
18.008,-0.01,1.06,0.73,-3.48,0.36,6.95,-2.08,0.81,0.48,0.00
18.037,-0.57,0.83,-0.15,-3.48,0.36,6.95,-2.08,0.81,0.48,0.00
18.071,-0.57,0.83,-0.15,-3.48,0.36,6.95,3.47,0.06,-4.33,0.00
18.072,-0.57,0.83,-0.15,-2.68,2.83,-15.40,3.47,0.06,-4.33,0.00
18.103,0.12,0.53,0.77,-2.68,2.83,-15.40,3.47,0.06,-4.33,0.00
18.153,0.12,0.53,0.77,-2.68,2.83,-15.40,2.99,-0.25,-0.51,0.00
18.164,0.12,0.53,0.77,-2.03,-0.37,-8.54,2.99,-0.25,-0.51,0.00
18.17,0.55,0.35,1.13,-2.03,-0.37,-8.54,2.99,-0.25,-0.51,0.00
18.203,0.55,0.35,1.13,-2.03,-0.37,-8.54,-1.37,-0.19,2.82,0.00
18.204,0.55,0.35,1.13,1.04,2.84,1.30,-1.37,-0.19,2.82,0.00
18.235,-0.05,1.39,0.40,1.04,2.84,1.30,-1.37,-0.19,2.82,0.00
18.27,-0.05,1.39,0.40,1.04,2.84,1.30,-2.60,0.38,2.42,0.00
18.271,-0.05,1.39,0.40,3.26,-1.99,3.19,-2.60,0.38,2.42,0.00
18.303,-0.43,0.93,0.13,3.26,-1.99,3.19,-2.60,0.38,2.42,0.00
18.348,-0.43,0.93,0.13,3.26,-1.99,3.19,2.38,-0.05,-3.55,0.00
18.35,-0.43,0.93,0.13,-6.19,0.67,-7.86,2.38,-0.05,-3.55,0.00
18.378,-0.18,0.75,0.16,-6.19,0.67,-7.86,2.38,-0.05,-3.55,0.00
18.401,-0.18,0.75,0.16,-6.19,0.67,-7.86,1.68,-0.08,-1.93,0.00
18.403,-0.18,0.75,0.16,0.64,-1.74,0.05,1.68,-0.08,-1.93,0.00
18.433,0.14,0.90,0.28,0.64,-1.74,0.05,1.68,-0.08,-1.93,0.00
18.471,0.14,0.90,0.28,0.64,-1.74,0.05,-4.85,0.76,4.04,0.00
18.474,0.14,0.90,0.28,5.10,-1.91,16.11,-4.85,0.76,4.04,0.00
18.499,-0.47,0.95,-0.78,5.10,-1.91,16.11,-4.85,0.76,4.04,0.00
18.549,-0.47,0.95,-0.78,5.10,-1.91,16.11,5.37,-1.15,-3.36,0.00
18.565,-0.47,0.95,-0.78,-4.60,1.73,-11.37,5.37,-1.15,-3.36,0.00
18.572,-0.21,1.17,0.44,-4.60,1.73,-11.37,5.37,-1.15,-3.36,0.00
18.599,-0.21,1.17,0.44,-4.60,1.73,-11.37,-0.83,-0.10,-0.62,0.00
18.6,-0.21,1.17,0.44,2.17,1.66,10.40,-0.83,-0.10,-0.62,0.00
18.644,0.31,0.84,0.20,2.17,1.66,10.40,-0.83,-0.10,-0.62,0.00
18.675,0.31,0.84,0.20,2.17,1.66,10.40,0.85,-0.62,1.25,0.00
18.686,0.31,0.84,0.20,-3.03,0.70,-4.34,0.85,-0.62,1.25,0.00
18.697,-0.40,0.89,0.64,-3.03,0.70,-4.34,0.85,-0.62,1.25,0.00
18.738,-0.40,0.89,0.64,-3.03,0.70,-4.34,0.39,0.14,-2.67,0.00
18.74,-0.40,0.89,0.64,-2.04,-1.06,-1.82,0.39,0.14,-2.67,0.00
18.772,0.41,0.73,0.69,-2.04,-1.06,-1.82,0.39,0.14,-2.67,0.00
18.797,0.41,0.73,0.69,-2.04,-1.06,-1.82,-1.04,-0.03,2.25,0.00
18.798,0.41,0.73,0.69,4.28,-2.06,1.98,-1.04,-0.03,2.25,0.00
18.866,-0.01,0.70,0.83,4.28,-2.06,1.98,-1.04,-0.03,2.25,0.00
18.867,-0.01,0.70,0.83,4.28,-2.06,1.98,0.80,-0.15,-0.07,0.00
18.868,-0.01,0.70,0.83,-1.53,0.91,-3.01,0.80,-0.15,-0.07,0.00
18.896,-0.01,0.94,0.31,-1.53,0.91,-3.01,0.80,-0.15,-0.07,0.00
18.931,-0.01,0.94,0.31,-1.53,0.91,-3.01,-0.05,-0.03,0.61,0.00
18.932,-0.01,0.94,0.31,3.45,-1.01,4.99,-0.05,-0.03,0.61,0.00
18.968,-0.23,0.90,0.25,3.45,-1.01,4.99,-0.05,-0.03,0.61,0.00
18.996,-0.23,0.90,0.25,3.45,-1.01,4.99,0.54,0.12,-1.49,0.00
18.997,-0.23,0.90,0.25,-3.84,-0.08,-2.97,0.54,0.12,-1.49,0.00
19.028,-0.07,0.98,0.51,-3.84,-0.08,-2.97,0.54,0.12,-1.49,0.00
19.061,-0.07,0.98,0.51,-3.84,-0.08,-2.97,-1.53,0.18,0.44,0.00
19.064,-0.07,0.98,0.51,5.10,-3.38,6.35,-1.53,0.18,0.44,0.00
19.102,0.02,0.92,0.41,5.10,-3.38,6.35,-1.53,0.18,0.44,0.00
19.131,0.02,0.92,0.41,5.10,-3.38,6.35,-0.82,0.05,0.95,0.00
19.132,0.02,0.92,0.41,2.49,-1.75,0.80,-0.82,0.05,0.95,0.00
19.171,-0.21,0.86,0.07,2.49,-1.75,0.80,-0.82,0.05,0.95,0.00
19.194,-0.21,0.86,0.07,2.49,-1.75,0.80,1.41,-0.23,-0.88,0.00
19.197,-0.21,0.86,0.07,-4.02,1.93,-5.22,1.41,-0.23,-0.88,0.00
19.226,0.27,0.82,0.65,-4.02,1.93,-5.22,1.41,-0.23,-0.88,0.00
19.259,0.27,0.82,0.65,-4.02,1.93,-5.22,-1.03,0.06,1.07,0.00
19.26,0.27,0.82,0.65,1.97,-0.45,3.53,-1.03,0.06,1.07,0.00
19.294,0.05,0.95,0.62,1.97,-0.45,3.53,-1.03,0.06,1.07,0.00
19.327,0.05,0.95,0.62,1.97,-0.45,3.53,-0.52,0.11,0.09,0.00
19.328,0.05,0.95,0.62,-2.00,-0.27,-2.68,-0.52,0.11,0.09,0.00
19.357,-0.42,1.09,0.11,-2.00,-0.27,-2.68,-0.52,0.11,0.09,0.00
19.391,-0.42,1.09,0.11,-2.00,-0.27,-2.68,0.89,-0.04,-1.22,0.00
19.392,-0.42,1.09,0.11,1.50,-0.63,1.81,0.89,-0.04,-1.22,0.00
19.424,0.26,0.75,0.67,1.50,-0.63,1.81,0.89,-0.04,-1.22,0.00
19.471,0.26,0.75,0.67,1.50,-0.63,1.81,-1.56,0.20,1.56,0.00
19.481,0.26,0.75,0.67,0.03,0.04,0.91,-1.56,0.20,1.56,0.00
19.512,0.06,0.67,0.47,0.03,0.04,0.91,-1.56,0.20,1.56,0.00
19.526,0.06,0.67,0.47,0.03,0.04,0.91,1.24,-0.20,-0.78,0.00
19.528,0.06,0.67,0.47,-2.43,1.59,-4.61,1.24,-0.20,-0.78,0.00
19.581,0.24,0.74,1.05,-2.43,1.59,-4.61,1.24,-0.20,-0.78,0.00
19.607,0.24,0.74,1.05,-2.43,1.59,-4.61,-2.22,0.48,1.16,0.00
19.609,0.24,0.74,1.05,0.53,-1.01,2.75,-2.22,0.48,1.16,0.00
19.625,-0.33,0.95,0.16,0.53,-1.01,2.75,-2.22,0.48,1.16,0.00
19.668,-0.33,0.95,0.16,0.53,-1.01,2.75,2.96,-0.32,-2.35,0.00
19.67,-0.33,0.95,0.16,-2.23,2.38,-6.36,2.96,-0.32,-2.35,0.00
19.711,-0.03,0.93,0.87,-2.23,2.38,-6.36,2.96,-0.32,-2.35,0.00
19.728,-0.03,0.93,0.87,-2.23,2.38,-6.36,-0.01,0.04,-0.44,0.00
19.729,-0.03,0.93,0.87,-0.41,1.44,0.92,-0.01,0.04,-0.44,0.00
19.763,0.05,0.91,0.38,-0.41,1.44,0.92,-0.01,0.04,-0.44,0.00
19.788,0.05,0.91,0.38,-0.41,1.44,0.92,-0.04,-0.05,0.40,0.00
19.79,0.05,0.91,0.38,-1.47,1.23,-2.56,-0.04,-0.05,0.40,0.00
19.831,-0.01,0.87,0.43,-1.47,1.23,-2.56,-0.04,-0.05,0.40,0.00
19.854,-0.01,0.87,0.43,-1.47,1.23,-2.56,-0.63,0.01,0.86,0.00
19.856,-0.01,0.87,0.43,2.89,-1.80,2.37,-0.63,0.01,0.86,0.00
19.888,0.02,0.81,0.65,2.89,-1.80,2.37,-0.63,0.01,0.86,0.00
19.927,0.02,0.81,0.65,2.89,-1.80,2.37,-0.93,0.10,0.73,0.00
19.928,0.02,0.81,0.65,-2.24,0.42,-3.38,-0.93,0.10,0.73,0.00
19.954,-0.16,1.05,0.19,-2.24,0.42,-3.38,-0.93,0.10,0.73,0.00
20.014,-0.16,1.05,0.19,-2.24,0.42,-3.38,-0.24,-0.01,0.34,0.00
20.016,-0.16,1.05,0.19,1.48,-0.85,3.01,-0.24,-0.01,0.34,0.00
20.018,-0.04,0.87,0.44,1.48,-0.85,3.01,-0.24,-0.01,0.34,0.00
20.051,-0.04,0.87,0.44,1.48,-0.85,3.01,0.08,-0.02,-0.03,0.00
20.053,-0.04,0.87,0.44,-2.09,2.22,-5.02,0.08,-0.02,-0.03,0.00
20.084,0.02,0.80,0.23,-2.09,2.22,-5.02,0.08,-0.02,-0.03,0.00
20.118,0.02,0.80,0.23,-2.09,2.22,-5.02,0.80,-0.15,0.01,0.00
20.12,0.02,0.80,0.23,0.02,-1.13,-0.44,0.80,-0.15,0.01,0.00
20.149,0.40,0.48,1.05,0.02,-1.13,-0.44,0.80,-0.15,0.01,0.00
20.183,0.40,0.48,1.05,0.02,-1.13,-0.44,-0.44,-0.01,0.84,0.00
20.185,0.40,0.48,1.05,-0.56,1.45,-2.82,-0.44,-0.01,0.84,0.00
20.216,0.00,0.85,0.38,-0.56,1.45,-2.82,-0.44,-0.01,0.84,0.00
20.249,0.00,0.85,0.38,-0.56,1.45,-2.82,-0.01,0.05,-0.09,0.00
20.251,0.00,0.85,0.38,-0.10,-1.47,1.01,-0.01,0.05,-0.09,0.00
20.306,-0.04,0.89,0.77,-0.10,-1.47,1.01,-0.01,0.05,-0.09,0.00
20.329,-0.04,0.89,0.77,-0.10,-1.47,1.01,-1.26,0.41,-0.11,0.00
20.333,-0.04,0.89,0.77,0.42,-0.16,2.04,-1.26,0.41,-0.11,0.00
20.348,-0.21,0.91,0.28,0.42,-0.16,2.04,-1.26,0.41,-0.11,0.00
20.394,-0.21,0.91,0.28,0.42,-0.16,2.04,0.74,0.10,-1.62,0.00
20.396,-0.21,0.91,0.28,-3.17,0.93,-2.69,0.74,0.10,-1.62,0.00
20.426,-0.35,1.09,0.35,-3.17,0.93,-2.69,0.74,0.10,-1.62,0.00
20.448,-0.35,1.09,0.35,-3.17,0.93,-2.69,-0.99,0.15,0.05,0.00
20.45,-0.35,1.09,0.35,3.80,-3.18,5.81,-0.99,0.15,0.05,0.00
20.479,-0.16,0.79,0.07,3.80,-3.18,5.81,-0.99,0.15,0.05,0.00
20.514,-0.16,0.79,0.07,3.80,-3.18,5.81,2.43,-0.21,-1.51,0.00
20.516,-0.16,0.79,0.07,-0.96,1.41,-1.15,2.43,-0.21,-1.51,0.00
20.546,0.45,0.60,1.16,-0.96,1.41,-1.15,2.43,-0.21,-1.51,0.00
20.601,0.45,0.60,1.16,-0.96,1.41,-1.15,-1.95,0.05,2.43,0.00
20.603,0.45,0.60,1.16,0.59,0.21,-1.04,-1.95,0.05,2.43,0.00
20.623,0.10,0.89,0.14,0.59,0.21,-1.04,-1.95,0.05,2.43,0.00
20.645,0.10,0.89,0.14,0.59,0.21,-1.04,0.30,-0.30,1.19,0.00
20.648,0.10,0.89,0.14,-0.92,-1.06,-0.92,0.30,-0.30,1.19,0.00
20.694,-0.40,0.97,0.33,-0.92,-1.06,-0.92,0.30,-0.30,1.19,0.00
20.737,-0.40,0.97,0.33,-0.92,-1.06,-0.92,0.34,0.08,-1.42,0.00
20.739,-0.40,0.97,0.33,3.48,-2.10,2.81,0.34,0.08,-1.42,0.00
20.757,-0.08,0.86,0.63,3.48,-2.10,2.81,0.34,0.08,-1.42,0.00
20.78,-0.08,0.86,0.63,3.48,-2.10,2.81,-0.60,0.27,-0.90,0.00
20.781,-0.08,0.86,0.63,-3.27,0.26,-0.16,-0.60,0.27,-0.90,0.00
20.821,-0.16,0.86,0.21,-3.27,0.26,-0.16,-0.60,0.27,-0.90,0.00
20.848,-0.16,0.86,0.21,-3.27,0.26,-0.16,1.54,-0.12,-0.86,0.00
20.849,-0.16,0.86,0.21,1.04,0.61,-0.94,1.54,-0.12,-0.86,0.00
20.875,0.24,0.59,1.14,1.04,0.61,-0.94,1.54,-0.12,-0.86,0.00
20.91,0.24,0.59,1.14,1.04,0.61,-0.94,-1.73,0.19,1.18,0.00
20.913,0.24,0.59,1.14,-2.21,1.17,-2.96,-1.73,0.19,1.18,0.00
20.948,0.08,0.76,0.57,-2.21,1.17,-2.96,-1.73,0.19,1.18,0.00
20.983,0.08,0.76,0.57,-2.21,1.17,-2.96,-0.21,-0.03,0.51,0.00
20.985,0.08,0.76,0.57,1.22,-0.87,0.87,-0.21,-0.03,0.51,0.00
21.014,0.01,0.94,0.52,1.22,-0.87,0.87,-0.21,-0.03,0.51,0.00
21.041,0.01,0.94,0.52,1.22,-0.87,0.87,-0.80,0.06,1.20,0.00
21.042,0.01,0.94,0.52,2.62,-2.90,2.26,-0.80,0.06,1.20,0.00
21.086,0.00,0.81,0.61,2.62,-2.90,2.26,-0.80,0.06,1.20,0.00
21.109,0.00,0.81,0.61,2.62,-2.90,2.26,-0.25,0.07,0.15,0.00
21.111,0.00,0.81,0.61,-1.02,0.54,-1.29,-0.25,0.07,0.15,0.00
21.139,-0.03,1.05,0.47,-1.02,0.54,-1.29,-0.25,0.07,0.15,0.00
21.181,-0.03,1.05,0.47,-1.02,0.54,-1.29,-2.13,0.52,0.78,0.00
21.182,-0.03,1.05,0.47,-1.02,0.54,-1.29,-2.13,0.52,0.78,0.00
21.182,-0.03,1.05,0.47,-1.02,0.54,-1.29,-2.13,0.52,0.78,0.00
21.183,-0.03,1.05,0.47,-1.02,0.54,-1.29,-2.13,0.52,0.78,0.00
21.183,-0.03,1.05,0.47,-1.02,0.54,-1.29,-2.13,0.52,0.78,0.00
21.184,-0.03,1.05,0.47,-1.02,0.54,-1.29,-2.13,0.52,0.78,0.00
21.184,-0.03,1.05,0.47,-1.02,0.54,-1.29,-2.13,0.52,0.78,0.00
21.205,-0.03,1.05,0.47,-1.02,0.54,-1.29,-2.13,0.52,0.78,0.00
21.206,-0.03,1.05,0.47,-1.02,0.54,-1.29,-2.13,0.52,0.78,0.00
21.207,-0.03,1.05,0.47,-1.02,0.54,-1.29,-1.95,0.49,0.65,0.00
21.207,-0.03,1.05,0.47,-1.02,0.54,-1.29,-1.37,0.41,0.03,0.00
21.208,-0.64,1.20,-0.36,-1.02,0.54,-1.29,-1.37,0.41,0.03,0.00
21.209,-0.64,1.20,-0.36,-1.02,0.54,-1.29,-1.37,0.41,0.03,0.00
21.209,-0.64,1.20,-0.36,-1.02,0.54,-1.29,-1.37,0.41,0.03,0.00
21.21,-0.64,1.20,-0.36,-1.02,0.54,-1.29,-1.37,0.41,0.03,0.00
21.21,-0.64,1.20,-0.36,-1.02,0.54,-1.29,-1.37,0.41,0.03,0.00
21.21,-0.64,1.20,-0.36,-1.02,0.54,-1.29,-1.37,0.41,0.03,0.00
21.212,-0.64,1.20,-0.36,-1.02,0.54,-1.29,0.14,0.16,-1.19,0.00
21.215,-0.28,0.74,-0.05,-1.02,0.54,-1.29,0.14,0.16,-1.19,0.00
21.223,-0.28,0.74,-0.05,-1.02,0.54,-1.29,1.31,-0.03,-1.94,0.00
21.224,-0.28,0.74,-0.05,-2.27,-1.19,-5.55,1.31,-0.03,-1.94,0.00
21.226,-0.74,1.64,-0.17,-2.27,-1.19,-5.55,1.31,-0.03,-1.94,0.00
21.232,-0.74,1.64,-0.17,-2.27,-1.19,-5.55,2.67,-0.19,-2.78,0.00
21.235,-0.26,1.15,-0.16,-2.27,-1.19,-5.55,2.67,-0.19,-2.78,0.00
21.243,-0.26,1.15,-0.16,-2.27,-1.19,-5.55,2.67,-0.19,-2.78,0.00
21.245,0.43,0.43,0.98,-2.27,-1.19,-5.55,2.67,-0.19,-2.78,0.00
21.252,0.43,0.43,0.98,-2.27,-1.19,-5.55,2.67,-0.26,-1.95,0.00
21.256,0.13,1.09,0.87,-2.27,-1.19,-5.55,2.67,-0.26,-1.95,0.00
21.262,0.13,1.09,0.87,-2.27,-1.19,-5.55,1.41,-0.18,-0.87,0.00
21.265,0.41,0.74,0.75,-2.27,-1.19,-5.55,1.41,-0.18,-0.87,0.00
21.272,0.41,0.74,0.75,-2.27,-1.19,-5.55,0.32,-0.12,0.29,0.00
21.275,0.41,0.51,1.42,-2.27,-1.19,-5.55,0.32,-0.12,0.29,0.00
21.282,0.41,0.51,1.42,-2.27,-1.19,-5.55,-1.31,0.08,1.42,0.00
21.283,0.41,0.51,1.42,4.57,-3.57,9.23,-1.31,0.08,1.42,0.00
21.285,0.06,0.83,0.93,4.57,-3.57,9.23,-1.31,0.08,1.42,0.00
21.293,0.06,0.83,0.93,4.57,-3.57,9.23,-1.31,0.08,1.42,0.00
21.295,0.22,0.48,0.74,4.57,-3.57,9.23,-1.31,0.08,1.42,0.00
21.302,0.22,0.48,0.74,4.57,-3.57,9.23,-2.69,0.33,2.10,0.00
21.313,-0.18,0.90,0.46,4.57,-3.57,9.23,-2.69,0.33,2.10,0.00
21.315,-0.18,0.90,0.46,4.57,-3.57,9.23,-2.37,0.32,1.69,0.00
21.334,-0.28,1.12,-0.09,4.57,-3.57,9.23,-2.37,0.32,1.69,0.00
21.335,-0.28,1.12,-0.09,4.57,-3.57,9.23,-2.37,0.32,1.69,0.00
21.336,0.24,0.30,0.53,4.57,-3.57,9.23,-2.37,0.32,1.69,0.00
21.336,0.24,0.30,0.53,4.57,-3.57,9.23,-0.72,0.04,0.69,0.00
21.337,-0.21,0.86,0.33,4.57,-3.57,9.23,-0.72,0.04,0.69,0.00
21.342,-0.21,0.86,0.33,4.57,-3.57,9.23,-0.33,0.00,0.33,0.00
21.344,-0.21,0.86,0.33,-1.95,0.22,-2.07,-0.33,0.00,0.33,0.00
21.345,-0.26,1.12,-0.37,-1.95,0.22,-2.07,-0.33,0.00,0.33,0.00
21.352,-0.26,1.12,-0.37,-1.95,0.22,-2.07,0.99,-0.21,-0.34,0.00
21.357,0.14,0.44,0.42,-1.95,0.22,-2.07,0.99,-0.21,-0.34,0.00
21.364,0.14,0.44,0.42,-1.95,0.22,-2.07,1.27,-0.27,-0.35,0.00
21.365,-0.27,1.09,0.40,-1.95,0.22,-2.07,1.27,-0.27,-0.35,0.00
21.373,-0.27,1.09,0.40,-1.95,0.22,-2.07,1.37,-0.24,-0.60,0.00
21.375,-0.08,1.00,0.03,-1.95,0.22,-2.07,1.37,-0.24,-0.60,0.00
21.382,-0.08,1.00,0.03,-1.95,0.22,-2.07,1.78,-0.28,-0.75,0.00
21.385,0.18,0.53,0.94,-1.95,0.22,-2.07,1.78,-0.28,-0.75,0.00
21.397,0.18,0.53,0.94,-1.95,0.22,-2.07,0.99,-0.18,-0.36,0.00
21.398,-0.23,1.37,0.53,-1.95,0.22,-2.07,0.99,-0.18,-0.36,0.00
21.403,-0.23,1.37,0.53,-1.95,0.22,-2.07,0.68,-0.11,-0.37,0.00
21.404,-0.23,1.37,0.53,-1.86,4.74,0.65,0.68,-0.11,-0.37,0.00
21.416,0.22,0.83,0.61,-1.86,4.74,0.65,0.68,-0.11,-0.37,0.00
21.422,0.22,0.83,0.61,-1.86,4.74,0.65,0.33,-0.08,-0.02,0.00
21.424,0.22,0.83,0.61,-1.86,4.74,0.65,0.33,-0.08,-0.02,0.00
21.424,0.39,0.49,1.47,-1.86,4.74,0.65,0.33,-0.08,-0.02,0.00
21.425,0.39,0.49,1.47,-1.86,4.74,0.65,0.33,-0.08,-0.02,0.00
21.426,0.03,1.18,0.85,-1.86,4.74,0.65,0.33,-0.08,-0.02,0.00
21.432,0.03,1.18,0.85,-1.86,4.74,0.65,-0.44,0.05,0.45,0.00
21.435,0.34,0.52,0.79,-1.86,4.74,0.65,-0.44,0.05,0.45,0.00
21.443,0.34,0.52,0.79,-1.86,4.74,0.65,-1.01,0.12,0.95,0.00
21.446,-0.02,0.69,0.90,-1.86,4.74,0.65,-1.01,0.12,0.95,0.00
21.453,-0.02,0.69,0.90,-1.86,4.74,0.65,-1.59,0.24,1.09,0.00
21.456,-0.39,1.33,-0.13,-1.86,4.74,0.65,-1.59,0.24,1.09,0.00
21.463,-0.39,1.33,-0.13,-1.86,4.74,0.65,-0.69,0.11,0.36,0.00
21.463,-0.39,1.33,-0.13,-0.21,-1.58,3.64,-0.69,0.11,0.36,0.00
21.465,-0.03,0.57,0.26,-0.21,-1.58,3.64,-0.69,0.11,0.36,0.00
21.473,-0.03,0.57,0.26,-0.21,-1.58,3.64,-0.05,0.02,-0.07,0.00
21.475,-0.28,0.84,0.57,-0.21,-1.58,3.64,-0.05,0.02,-0.07,0.00
21.483,-0.28,0.84,0.57,-0.21,-1.58,3.64,0.09,0.06,-0.51,0.00
21.485,-0.55,1.47,-0.24,-0.21,-1.58,3.64,0.09,0.06,-0.51,0.00
21.496,-0.55,1.47,-0.24,-0.21,-1.58,3.64,1.19,-0.06,-1.36,0.00
21.497,-0.01,0.66,0.39,-0.21,-1.58,3.64,1.19,-0.06,-1.36,0.00
21.518,-0.01,0.66,0.39,-0.21,-1.58,3.64,1.50,-0.10,-1.51,0.00
21.52,-0.23,1.10,0.63,-0.21,-1.58,3.64,1.50,-0.10,-1.51,0.00
21.521,-0.23,1.10,0.63,-0.21,-1.58,3.64,1.28,-0.07,-1.48,0.00
21.522,-0.12,1.12,0.29,-0.21,-1.58,3.64,1.28,-0.07,-1.48,0.00
21.523,-0.12,1.12,0.29,-0.21,-1.58,3.64,1.28,-0.07,-1.48,0.00
21.523,-0.12,1.12,0.29,-1.50,2.00,1.77,1.28,-0.07,-1.48,0.00
21.525,0.20,0.56,1.20,-1.50,2.00,1.77,1.28,-0.07,-1.48,0.00
21.532,0.20,0.56,1.20,-1.50,2.00,1.77,0.16,0.03,-0.67,0.00
21.537,-0.16,1.12,1.08,-1.50,2.00,1.77,0.16,0.03,-0.67,0.00
21.542,-0.16,1.12,1.08,-1.50,2.00,1.77,-0.86,0.16,-0.30,0.00
21.545,0.11,0.74,0.95,-1.50,2.00,1.77,-0.86,0.16,-0.30,0.00
21.553,0.11,0.74,0.95,-1.50,2.00,1.77,-1.64,0.28,0.14,0.00
21.556,0.18,0.42,1.36,-1.50,2.00,1.77,-1.64,0.28,0.14,0.00
21.564,0.18,0.42,1.36,-1.50,2.00,1.77,-2.76,0.47,0.75,0.00
21.565,-0.46,1.24,0.43,-1.50,2.00,1.77,-2.76,0.47,0.75,0.00
21.573,-0.46,1.24,0.43,-1.50,2.00,1.77,-2.76,0.47,0.75,0.00
21.575,-0.22,0.90,-0.08,-1.50,2.00,1.77,-2.76,0.47,0.75,0.00
21.583,-0.22,0.90,-0.08,-1.50,2.00,1.77,-1.31,0.30,-0.17,0.00
21.584,-0.22,0.90,-0.08,-1.44,0.64,-6.18,-1.31,0.30,-0.17,0.00
21.595,-0.07,0.72,0.36,-1.44,0.64,-6.18,-1.31,0.30,-0.17,0.00
21.596,-0.07,0.72,0.36,-1.44,0.64,-6.18,-1.31,0.30,-0.17,0.00
21.597,-0.37,1.18,-0.03,-1.44,0.64,-6.18,-1.31,0.30,-0.17,0.00
21.619,-0.37,1.18,-0.03,-1.44,0.64,-6.18,-1.31,0.30,-0.17,0.00
21.621,0.15,0.50,0.03,-1.44,0.64,-6.18,-1.31,0.30,-0.17,0.00
21.621,0.15,0.50,0.03,-1.44,0.64,-6.18,0.88,-0.07,-0.71,0.00
21.623,-0.16,0.93,0.23,-1.44,0.64,-6.18,0.88,-0.07,-0.71,0.00
21.624,-0.16,0.93,0.23,-1.44,0.64,-6.18,1.33,-0.16,-0.67,0.00
21.625,-0.40,1.32,-0.31,-1.44,0.64,-6.18,1.33,-0.16,-0.67,0.00
21.632,-0.40,1.32,-0.31,-1.44,0.64,-6.18,2.34,-0.26,-0.97,0.00
21.636,0.20,0.46,0.44,-1.44,0.64,-6.18,2.34,-0.26,-0.97,0.00
21.643,0.20,0.46,0.44,-1.44,0.64,-6.18,2.26,-0.27,-0.67,0.00
21.643,0.20,0.46,0.44,3.02,-4.32,0.04,2.26,-0.27,-0.67,0.00
21.645,-0.16,1.01,0.77,3.02,-4.32,0.04,2.26,-0.27,-0.67,0.00
21.653,-0.16,1.01,0.77,3.02,-4.32,0.04,2.26,-0.27,-0.67,0.00
21.656,-0.19,1.10,0.28,3.02,-4.32,0.04,2.26,-0.27,-0.67,0.00
21.662,-0.19,1.10,0.28,3.02,-4.32,0.04,1.31,-0.17,-0.40,0.00
21.665,0.36,0.31,0.98,3.02,-4.32,0.04,1.31,-0.17,-0.40,0.00
21.673,0.36,0.31,0.98,3.02,-4.32,0.04,1.31,-0.17,-0.40,0.00
21.675,-0.36,1.31,0.76,3.02,-4.32,0.04,1.31,-0.17,-0.40,0.00
21.683,-0.36,1.31,0.76,3.02,-4.32,0.04,1.31,-0.17,-0.40,0.00
21.696,-0.09,1.03,0.11,3.02,-4.32,0.04,1.31,-0.17,-0.40,0.00
21.698,-0.09,1.03,0.11,3.02,-4.32,0.04,0.94,-0.10,-0.53,0.00
21.698,0.56,0.21,1.00,3.02,-4.32,0.04,0.94,-0.10,-0.53,0.00
21.731,0.56,0.21,1.00,3.02,-4.32,0.04,1.00,-0.10,-0.52,0.00
21.732,0.56,0.21,1.00,0.29,1.19,-2.89,1.00,-0.10,-0.52,0.00
21.733,-0.18,1.23,0.59,0.29,1.19,-2.89,1.00,-0.10,-0.52,0.00
21.734,-0.18,1.23,0.59,0.29,1.19,-2.89,0.04,-0.06,0.30,0.00
21.735,0.19,0.87,-0.09,0.29,1.19,-2.89,0.04,-0.06,0.30,0.00
21.736,0.19,0.87,-0.09,0.29,1.19,-2.89,-0.40,-0.04,0.57,0.00
21.736,0.55,0.33,0.76,0.29,1.19,-2.89,-0.40,-0.04,0.57,0.00
21.737,0.55,0.33,0.76,0.29,1.19,-2.89,-0.37,-0.13,1.53,0.00
21.737,-0.19,1.29,0.27,0.29,1.19,-2.89,-0.37,-0.13,1.53,0.00
21.743,-0.19,1.29,0.27,0.29,1.19,-2.89,-0.37,-0.13,1.53,0.00
21.747,0.28,0.76,0.01,0.29,1.19,-2.89,-0.37,-0.13,1.53,0.00
21.755,0.28,0.76,0.01,0.29,1.19,-2.89,-0.17,-0.16,1.46,0.00
21.76,0.41,0.42,1.00,0.29,1.19,-2.89,-0.17,-0.16,1.46,0.00
21.764,0.41,0.42,1.00,0.29,1.19,-2.89,-0.30,-0.19,1.92,0.00
21.765,0.41,0.42,1.00,3.91,-4.68,5.49,-0.30,-0.19,1.92,0.00
21.766,-0.16,1.13,0.51,3.91,-4.68,5.49,-0.30,-0.19,1.92,0.00
21.779,-0.16,1.13,0.51,3.91,-4.68,5.49,-0.54,-0.11,1.66,0.00
21.78,0.14,0.71,0.26,3.91,-4.68,5.49,-0.54,-0.11,1.66,0.00
21.783,0.14,0.71,0.26,3.91,-4.68,5.49,-0.43,-0.11,1.43,0.00
21.787,-0.03,0.81,0.78,3.91,-4.68,5.49,-0.43,-0.11,1.43,0.00
21.793,-0.03,0.81,0.78,3.91,-4.68,5.49,-0.43,-0.11,1.43,0.00
21.795,-0.38,1.23,0.26,3.91,-4.68,5.49,-0.43,-0.11,1.43,0.00
21.803,-0.38,1.23,0.26,3.91,-4.68,5.49,-0.68,-0.02,1.14,0.00
21.805,0.05,0.63,0.48,3.91,-4.68,5.49,-0.68,-0.02,1.14,0.00
21.813,0.05,0.63,0.48,3.91,-4.68,5.49,-0.34,0.01,0.34,0.00
21.815,-0.18,0.91,0.69,3.91,-4.68,5.49,-0.34,0.01,0.34,0.00
21.83,-0.18,0.91,0.69,3.91,-4.68,5.49,-0.28,0.04,0.02,0.00
21.832,-0.18,0.91,0.69,0.30,-2.55,0.21,-0.28,0.04,0.02,0.00
21.833,-0.30,1.25,0.05,0.30,-2.55,0.21,-0.28,0.04,0.02,0.00
21.855,-0.30,1.25,0.05,0.30,-2.55,0.21,-0.47,0.12,-0.27,0.00
21.857,-0.30,1.25,0.05,0.30,-2.55,0.21,-0.47,0.12,-0.27,0.00
21.858,0.20,0.50,0.61,0.30,-2.55,0.21,-0.47,0.12,-0.27,0.00
21.859,0.20,0.50,0.61,0.30,-2.55,0.21,-0.82,0.18,-0.07,0.00
21.859,-0.15,1.10,0.53,0.30,-2.55,0.21,-0.82,0.18,-0.07,0.00
21.86,-0.15,1.10,0.53,0.30,-2.55,0.21,-0.78,0.20,-0.13,0.00
21.86,0.00,1.16,-0.07,0.30,-2.55,0.21,-0.78,0.20,-0.13,0.00
21.862,0.00,1.16,-0.07,0.30,-2.55,0.21,0.04,0.03,-0.23,0.00
21.867,0.42,0.40,1.13,0.30,-2.55,0.21,0.04,0.03,-0.23,0.00
21.872,0.42,0.40,1.13,0.30,-2.55,0.21,-0.47,0.08,0.35,0.00
21.875,0.04,0.98,1.05,0.30,-2.55,0.21,-0.47,0.08,0.35,0.00
21.883,0.04,0.98,1.05,0.30,-2.55,0.21,-1.17,0.23,0.68,0.00
21.885,0.04,0.98,1.05,0.16,1.18,5.27,-1.17,0.23,0.68,0.00
21.892,0.24,0.83,0.55,0.16,1.18,5.27,-1.17,0.23,0.68,0.00
21.893,0.24,0.83,0.55,0.16,1.18,5.27,-1.17,0.23,0.68,0.00
21.895,0.30,0.34,1.42,0.16,1.18,5.27,-1.17,0.23,0.68,0.00
21.908,0.30,0.34,1.42,0.16,1.18,5.27,-2.25,0.46,1.46,0.00
21.909,-0.32,0.93,0.79,0.16,1.18,5.27,-2.25,0.46,1.46,0.00
21.913,-0.32,0.93,0.79,0.16,1.18,5.27,-2.51,0.64,1.07,0.00
21.929,-0.37,1.11,-0.26,0.16,1.18,5.27,-2.51,0.64,1.07,0.00
21.931,-0.37,1.11,-0.26,0.16,1.18,5.27,-2.51,0.64,1.07,0.00
21.932,-0.17,0.65,0.26,0.16,1.18,5.27,-2.51,0.64,1.07,0.00
21.933,-0.17,0.65,0.26,0.16,1.18,5.27,-1.32,0.44,0.04,0.00
21.935,-0.54,1.18,0.14,0.16,1.18,5.27,-1.32,0.44,0.04,0.00
21.942,-0.54,1.18,0.14,0.16,1.18,5.27,0.58,0.13,-1.58,0.00
21.943,-0.54,1.18,0.14,-5.15,3.35,-4.01,0.58,0.13,-1.58,0.00
21.945,-0.26,1.09,-0.42,-5.15,3.35,-4.01,0.58,0.13,-1.58,0.00
21.953,-0.26,1.09,-0.42,-5.15,3.35,-4.01,0.58,0.13,-1.58,0.00
21.955,0.00,0.86,0.21,-5.15,3.35,-4.01,0.58,0.13,-1.58,0.00
21.964,0.00,0.86,0.21,-5.15,3.35,-4.01,2.62,-0.26,-2.07,0.00
21.966,-0.23,1.55,-0.36,-5.15,3.35,-4.01,2.62,-0.26,-2.07,0.00
21.973,-0.23,1.55,-0.36,-5.15,3.35,-4.01,3.66,-0.41,-1.97,0.00
21.975,0.69,0.54,0.90,-5.15,3.35,-4.01,3.66,-0.41,-1.97,0.00
21.983,0.69,0.54,0.90,-5.15,3.35,-4.01,2.92,-0.41,-0.75,0.00
21.985,0.85,-0.00,2.81,-5.15,3.35,-4.01,2.92,-0.41,-0.75,0.00
21.993,0.85,-0.00,2.81,-5.15,3.35,-4.01,2.80,-0.41,-0.60,0.00
21.995,0.13,0.45,1.99,-5.15,3.35,-4.01,2.80,-0.41,-0.60,0.00
22.006,0.13,0.45,1.99,-5.15,3.35,-4.01,2.80,-0.41,-0.61,0.00
22.008,0.13,0.45,1.99,0.99,-3.64,13.97,2.80,-0.41,-0.61,0.00
22.008,-0.09,0.75,0.20,0.99,-3.64,13.97,2.80,-0.41,-0.61,0.00
22.013,-0.09,0.75,0.20,0.99,-3.64,13.97,0.58,0.02,0.16,0.00
22.025,-0.40,0.90,-0.37,0.99,-3.64,13.97,0.58,0.02,0.16,0.00
22.027,-0.40,0.90,-0.37,0.99,-3.64,13.97,0.29,0.05,-0.19,0.00
22.028,-0.87,1.30,-0.49,0.99,-3.64,13.97,0.29,0.05,-0.19,0.00
22.033,-0.87,1.30,-0.49,0.99,-3.64,13.97,0.29,0.05,-0.19,0.00
22.035,-0.51,1.00,-0.49,0.99,-3.64,13.97,0.29,0.05,-0.19,0.00
22.042,-0.51,1.00,-0.49,0.99,-3.64,13.97,3.20,-0.35,-2.91,0.00
22.045,-0.29,1.01,-0.03,0.99,-3.64,13.97,3.20,-0.35,-2.91,0.00
22.053,-0.29,1.01,-0.03,0.99,-3.64,13.97,4.05,-0.44,-3.29,0.00
22.056,-0.13,1.07,-0.05,0.99,-3.64,13.97,4.05,-0.44,-3.29,0.00
22.063,-0.13,1.07,-0.05,0.99,-3.64,13.97,4.44,-0.48,-3.02,0.00
22.063,-0.13,1.07,-0.05,-0.24,1.60,-4.58,4.44,-0.48,-3.02,0.00
22.069,0.45,0.46,0.44,-0.24,1.60,-4.58,4.44,-0.48,-3.02,0.00
22.073,0.45,0.46,0.44,-0.24,1.60,-4.58,4.44,-0.48,-3.02,0.00
22.075,0.21,1.11,0.44,-0.24,1.60,-4.58,4.44,-0.48,-3.02,0.00
22.092,0.21,1.11,0.44,-0.24,1.60,-4.58,2.90,-0.42,-0.61,0.00
22.093,0.56,0.75,0.53,-0.24,1.60,-4.58,2.90,-0.42,-0.61,0.00
22.096,0.56,0.75,0.53,-0.24,1.60,-4.58,2.90,-0.42,-0.61,0.00
22.098,0.72,0.24,1.72,-0.24,1.60,-4.58,2.90,-0.42,-0.61,0.00
22.116,0.72,0.24,1.72,-0.24,1.60,-4.58,-2.56,0.23,2.88,0.00
22.118,0.12,0.71,1.45,-0.24,1.60,-4.58,-2.56,0.23,2.88,0.00
22.118,0.12,0.71,1.45,-0.24,1.60,-4.58,-2.56,0.23,2.88,0.00
22.118,-0.03,1.07,0.31,-0.24,1.60,-4.58,-2.56,0.23,2.88,0.00
22.123,-0.03,1.07,0.31,-0.24,1.60,-4.58,-3.94,0.62,3.05,0.00
22.124,-0.03,1.07,0.31,-0.82,2.52,-2.73,-3.94,0.62,3.05,0.00
22.125,0.07,0.69,0.63,-0.82,2.52,-2.73,-3.94,0.62,3.05,0.00
22.133,0.07,0.69,0.63,-0.82,2.52,-2.73,-3.94,0.62,3.05,0.00
22.135,-0.37,1.17,0.65,-0.82,2.52,-2.73,-3.94,0.62,3.05,0.00
22.142,-0.37,1.17,0.65,-0.82,2.52,-2.73,-3.21,0.52,2.43,0.00
22.145,-0.18,1.03,0.14,-0.82,2.52,-2.73,-3.21,0.52,2.43,0.00
22.157,-0.18,1.03,0.14,-0.82,2.52,-2.73,-2.30,0.46,1.25,0.00
22.159,0.13,0.63,0.53,-0.82,2.52,-2.73,-2.30,0.46,1.25,0.00
22.167,-0.12,0.98,0.19,-0.82,2.52,-2.73,-2.30,0.46,1.25,0.00
22.17,-0.12,0.98,0.19,-0.82,2.52,-2.73,-0.46,0.13,-0.11,0.00
22.173,-0.12,0.98,0.19,-0.82,2.52,-2.73,0.26,-0.04,-0.44,0.00
22.175,0.03,0.99,-0.29,-0.82,2.52,-2.73,0.26,-0.04,-0.44,0.00
22.183,0.03,0.99,-0.29,-0.82,2.52,-2.73,0.26,-0.04,-0.44,0.00
22.184,0.03,0.99,-0.29,-1.52,1.59,-3.84,0.26,-0.04,-0.44,0.00
22.185,0.20,0.78,0.37,-1.52,1.59,-3.84,0.26,-0.04,-0.44,0.00
22.193,0.20,0.78,0.37,-1.52,1.59,-3.84,1.48,-0.36,-0.67,0.00
22.206,-0.02,0.91,0.63,-1.52,1.59,-3.84,1.48,-0.36,-0.67,0.00
22.207,-0.02,0.91,0.63,-1.52,1.59,-3.84,1.71,-0.47,-0.34,0.00
22.207,-0.04,0.91,0.49,-1.52,1.59,-3.84,1.71,-0.47,-0.34,0.00
22.218,-0.04,0.91,0.49,-1.52,1.59,-3.84,1.71,-0.47,-0.34,0.00
22.219,-0.08,0.87,0.66,-1.52,1.59,-3.84,1.71,-0.47,-0.34,0.00
22.235,-0.08,0.87,0.66,-1.52,1.59,-3.84,1.42,-0.37,-0.35,0.00
22.236,-0.41,1.19,0.52,-1.52,1.59,-3.84,1.42,-0.37,-0.35,0.00
22.237,-0.41,1.19,0.52,-1.52,1.59,-3.84,1.28,-0.23,-0.85,0.00
22.237,-0.10,0.91,0.45,-1.52,1.59,-3.84,1.28,-0.23,-0.85,0.00
22.242,-0.10,0.91,0.45,-1.52,1.59,-3.84,1.12,-0.05,-1.66,0.00
22.243,-0.10,0.91,0.45,-0.69,0.32,-0.26,1.12,-0.05,-1.66,0.00
22.247,0.09,0.63,1.01,-0.69,0.32,-0.26,1.12,-0.05,-1.66,0.00
22.253,0.09,0.63,1.01,-0.69,0.32,-0.26,0.25,0.11,-1.24,0.00
22.258,-0.06,0.77,0.67,-0.69,0.32,-0.26,0.25,0.11,-1.24,0.00
22.279,-0.06,0.77,0.67,-0.69,0.32,-0.26,-0.40,0.20,-0.88,0.00
22.282,0.11,0.65,0.24,-0.69,0.32,-0.26,-0.40,0.20,-0.88,0.00
22.282,0.11,0.65,0.24,-0.69,0.32,-0.26,-0.43,0.15,-0.49,0.00
22.282,0.04,0.70,0.21,-0.69,0.32,-0.26,-0.43,0.15,-0.49,0.00
22.283,0.04,0.70,0.21,-0.69,0.32,-0.26,-0.43,0.15,-0.49,0.00
22.285,-0.24,0.94,-0.07,-0.69,0.32,-0.26,-0.43,0.15,-0.49,0.00
22.293,-0.24,0.94,-0.07,-0.69,0.32,-0.26,0.68,-0.08,-0.45,0.00
22.298,-0.22,0.92,-0.12,-0.69,0.32,-0.26,0.68,-0.08,-0.45,0.00
22.303,-0.22,0.92,-0.12,-0.69,0.32,-0.26,1.66,-0.19,-0.83,0.00
22.304,-0.22,0.92,-0.12,-1.69,0.34,-5.65,1.66,-0.19,-0.83,0.00
22.305,-0.25,1.01,0.10,-1.69,0.34,-5.65,1.66,-0.19,-0.83,0.00
22.341,-0.25,1.01,0.10,-1.69,0.34,-5.65,1.66,-0.19,-0.83,0.00
22.342,-0.37,1.33,0.12,-1.69,0.34,-5.65,1.66,-0.19,-0.83,0.00
22.343,-0.37,1.33,0.12,-1.69,0.34,-5.65,2.30,-0.23,-1.18,0.00
22.344,-0.37,1.33,0.12,-1.69,0.34,-5.65,2.78,-0.23,-1.54,0.00
22.345,0.09,0.86,0.95,-1.69,0.34,-5.65,2.78,-0.23,-1.54,0.00
22.346,0.09,0.86,0.95,-1.69,0.34,-5.65,2.78,-0.23,-1.54,0.00
22.346,0.09,0.86,0.95,-1.69,0.34,-5.65,2.78,-0.23,-1.54,0.00
22.347,0.13,0.94,0.62,-1.69,0.34,-5.65,2.78,-0.23,-1.54,0.00
22.373,0.13,0.94,0.62,-1.69,0.34,-5.65,1.94,-0.15,-1.20,0.00
22.375,0.13,0.94,0.96,-1.69,0.34,-5.65,1.94,-0.15,-1.20,0.00
22.376,0.13,0.73,0.85,-1.69,0.34,-5.65,1.94,-0.15,-1.20,0.00
22.377,0.13,0.73,0.85,-1.69,0.34,-5.65,1.03,-0.09,-0.60,0.00
22.378,0.13,0.73,0.85,-1.69,0.34,-5.65,1.03,-0.09,-0.60,0.00
22.379,0.13,0.73,0.85,3.91,-3.40,5.35,1.03,-0.09,-0.60,0.00
22.38,0.13,0.73,0.85,3.91,-3.40,5.35,-0.19,0.01,0.25,0.00
22.381,-0.06,0.95,0.31,3.91,-3.40,5.35,-0.19,0.01,0.25,0.00
22.383,-0.06,0.95,0.31,3.91,-3.40,5.35,-1.17,0.11,0.83,0.00
22.387,-0.06,0.95,0.31,3.91,-3.40,5.35,-1.17,0.11,0.83,0.00
22.417,-0.06,0.95,0.31,3.91,-3.40,5.35,-1.20,0.10,0.89,0.00
22.418,-0.06,0.95,0.31,3.91,-3.40,5.35,-1.20,0.10,0.89,0.00
22.419,-0.06,0.95,0.31,3.91,-3.40,5.35,-1.20,0.10,0.89,0.00
22.42,-0.25,1.06,0.11,3.91,-3.40,5.35,-1.20,0.10,0.89,0.00
22.42,-0.27,1.11,0.10,3.91,-3.40,5.35,-1.20,0.10,0.89,0.00
22.421,-0.27,1.11,0.10,3.91,-3.40,5.35,-0.57,0.05,0.49,0.00
22.421,-0.27,1.11,0.10,3.91,-3.40,5.35,-0.57,0.05,0.49,0.00
22.423,-0.27,1.11,0.10,3.91,-3.40,5.35,0.68,-0.05,-0.30,0.00
22.425,-0.27,1.11,0.10,-0.49,0.86,-1.02,0.68,-0.05,-0.30,0.00
22.438,-0.27,1.11,0.10,-0.49,0.86,-1.02,0.68,-0.05,-0.30,0.00
22.439,0.25,0.73,0.58,-0.49,0.86,-1.02,0.68,-0.05,-0.30,0.00
22.439,0.25,0.73,0.58,-0.49,0.86,-1.02,0.68,-0.05,-0.30,0.00
22.466,0.25,0.73,0.58,-0.49,0.86,-1.02,0.50,-0.05,-0.00,0.00
22.467,0.33,0.64,1.07,-0.49,0.86,-1.02,0.50,-0.05,-0.00,0.00
22.468,0.33,0.64,1.07,-0.49,0.86,-1.02,-0.41,0.03,0.63,0.00
22.469,0.33,0.64,1.07,-0.49,0.86,-1.02,-1.47,0.14,1.30,0.00
22.47,0.07,0.91,0.77,-0.49,0.86,-1.02,-1.47,0.14,1.30,0.00
22.471,0.07,0.91,0.77,-0.49,0.86,-1.02,-1.47,0.14,1.30,0.00
22.472,0.07,0.91,0.77,-0.49,0.86,-1.02,-1.47,0.14,1.30,0.00
22.474,0.07,0.91,0.77,-0.49,0.86,-1.02,-1.75,0.17,1.43,0.00
22.476,0.02,0.86,0.54,-0.49,0.86,-1.02,-1.75,0.17,1.43,0.00
22.483,0.02,0.86,0.54,-0.49,0.86,-1.02,-1.41,0.18,0.93,0.00
22.485,0.02,0.86,0.54,-1.21,0.01,0.65,-1.41,0.18,0.93,0.00
22.485,-0.11,0.86,0.58,-1.21,0.01,0.65,-1.41,0.18,0.93,0.00
22.512,-0.11,0.86,0.58,-1.21,0.01,0.65,-1.41,0.18,0.93,0.00
22.522,-0.11,0.86,0.58,-1.21,0.01,0.65,-1.41,0.18,0.93,0.00
22.523,-0.23,0.88,0.36,-1.21,0.01,0.65,-1.41,0.18,0.93,0.00
22.524,-0.23,0.88,0.36,-1.21,0.01,0.65,-1.41,0.18,0.93,0.00
22.524,-0.23,0.88,0.36,-1.21,0.01,0.65,-0.98,0.17,0.38,0.00
22.525,-0.37,1.38,0.07,-1.21,0.01,0.65,-0.98,0.17,0.38,0.00
22.526,-0.37,1.38,0.07,-1.21,0.01,0.65,-0.03,0.07,-0.35,0.00
22.527,-0.37,1.38,0.07,-1.21,0.01,0.65,-0.03,0.07,-0.35,0.00
22.552,-0.37,1.38,0.07,-1.21,0.01,0.65,1.01,-0.05,-1.03,0.00
22.554,-0.37,1.38,0.07,-1.21,0.01,0.65,1.01,-0.05,-1.03,0.00
22.555,-0.37,1.38,0.07,-3.33,4.91,-3.91,1.01,-0.05,-1.03,0.00
22.556,0.10,0.82,0.28,-3.33,4.91,-3.91,1.01,-0.05,-1.03,0.00
22.557,0.10,0.82,0.28,-3.33,4.91,-3.91,1.43,-0.18,-0.69,0.00
22.558,0.10,0.82,0.28,-3.33,4.91,-3.91,1.43,-0.18,-0.69,0.00
22.57,-0.13,0.88,0.19,-3.33,4.91,-3.91,1.43,-0.18,-0.69,0.00
22.572,-0.13,0.88,0.19,-3.33,4.91,-3.91,1.43,-0.18,-0.69,0.00
22.573,-0.13,0.88,0.19,-3.33,4.91,-3.91,1.62,-0.24,-0.43,0.00
22.579,-0.23,0.91,0.30,-3.33,4.91,-3.91,1.62,-0.24,-0.43,0.00
22.583,-0.23,0.91,0.30,-3.33,4.91,-3.91,1.70,-0.25,-0.39,0.00
22.586,-0.23,0.91,0.30,-3.33,4.91,-3.91,1.70,-0.25,-0.39,0.00
22.6,-0.23,0.91,0.30,-3.33,4.91,-3.91,1.54,-0.19,-0.59,0.00
22.607,-0.23,0.91,0.30,-3.33,4.91,-3.91,1.29,-0.12,-0.83,0.00
22.611,-0.23,0.91,0.30,-2.04,0.13,-0.06,1.29,-0.12,-0.83,0.00
22.612,-0.29,0.96,0.41,-2.04,0.13,-0.06,1.29,-0.12,-0.83,0.00
22.613,-0.29,0.96,0.41,-2.04,0.13,-0.06,1.29,-0.12,-0.83,0.00
22.614,-0.29,0.96,0.41,-2.04,0.13,-0.06,1.01,-0.04,-1.03,0.00
22.634,-0.29,0.96,0.40,-2.04,0.13,-0.06,1.01,-0.04,-1.03,0.00
22.649,-0.29,0.96,0.40,-2.04,0.13,-0.06,0.76,0.01,-1.20,0.00
22.649,-0.38,1.39,0.29,-2.04,0.13,-0.06,0.76,0.01,-1.20,0.00
22.65,-0.38,1.39,0.29,-2.04,0.13,-0.06,0.83,0.04,-1.36,0.00
22.651,-0.07,1.08,0.41,-2.04,0.13,-0.06,0.83,0.04,-1.36,0.00
22.651,-0.07,1.08,0.41,-2.04,0.13,-0.06,0.83,0.04,-1.36,0.00
22.652,0.40,0.48,1.36,-2.04,0.13,-0.06,0.83,0.04,-1.36,0.00
22.653,0.40,0.48,1.36,-2.04,0.13,-0.06,-0.49,0.08,-0.35,0.00
22.657,0.40,0.48,1.36,-2.04,0.13,-0.06,-0.49,0.08,-0.35,0.00
22.671,0.40,0.48,1.36,-2.04,0.13,-0.06,-2.17,0.17,0.69,0.00
22.683,0.40,0.48,1.36,4.72,-4.14,9.12,-2.17,0.17,0.69,0.00
22.684,0.32,0.65,0.61,4.72,-4.14,9.12,-2.17,0.17,0.69,0.00
22.684,0.32,0.65,0.61,4.72,-4.14,9.12,-3.26,0.26,1.40,0.00
22.685,0.32,0.65,0.61,4.72,-4.14,9.12,-3.26,0.26,1.40,0.00
22.686,0.32,0.65,0.61,4.72,-4.14,9.12,-3.46,0.25,1.92,0.00
22.692,-0.03,0.79,0.37,4.72,-4.14,9.12,-3.46,0.25,1.92,0.00
22.693,-0.03,0.79,0.37,4.72,-4.14,9.12,-2.92,0.19,1.83,0.00
22.698,-0.03,0.79,0.37,4.72,-4.14,9.12,-2.92,0.19,1.83,0.00
22.703,-0.03,0.79,0.37,4.72,-4.14,9.12,-1.09,-0.01,0.88,0.00
22.706,-0.18,0.83,-0.01,4.72,-4.14,9.12,-1.09,-0.01,0.88,0.00
22.715,-0.18,0.83,-0.01,4.72,-4.14,9.12,-1.09,-0.01,0.88,0.00
22.717,-0.18,0.86,-0.16,4.72,-4.14,9.12,-1.09,-0.01,0.88,0.00
22.723,-0.18,0.86,-0.16,4.72,-4.14,9.12,1.69,-0.31,-0.56,0.00
22.723,-0.18,0.86,-0.16,-3.24,2.86,-7.60,1.69,-0.31,-0.56,0.00
22.735,-0.37,1.18,-0.31,-3.24,2.86,-7.60,1.69,-0.31,-0.56,0.00
22.744,-0.37,1.18,-0.31,-3.24,2.86,-7.60,1.69,-0.31,-0.56,0.00
22.744,-0.18,0.94,-0.05,-3.24,2.86,-7.60,1.69,-0.31,-0.56,0.00
22.745,-0.18,0.94,-0.05,-3.24,2.86,-7.60,2.63,-0.37,-1.00,0.00
22.76,-0.08,0.97,0.75,-3.24,2.86,-7.60,2.63,-0.37,-1.00,0.00
22.777,-0.08,0.97,0.75,-3.24,2.86,-7.60,2.27,-0.31,-1.01,0.00
22.777,-0.08,0.97,0.75,-3.24,2.86,-7.60,2.27,-0.31,-1.01,0.00
22.778,-0.08,0.97,0.75,-3.24,2.86,-7.60,2.27,-0.31,-1.01,0.00
22.788,-0.08,0.97,0.75,-3.24,2.86,-7.60,0.52,-0.10,-0.39,0.00
22.789,-0.08,0.97,0.75,0.73,-0.91,2.74,0.52,-0.10,-0.39,0.00
22.815,-0.10,0.94,0.33,0.73,-0.91,2.74,0.52,-0.10,-0.39,0.00
22.849,-0.10,0.94,0.33,0.73,-0.91,2.74,0.25,-0.10,0.25,0.00
22.85,-0.10,0.94,0.33,1.70,-1.56,-0.94,0.25,-0.10,0.25,0.00
22.877,-0.00,0.84,0.33,1.70,-1.56,-0.94,0.25,-0.10,0.25,0.00
22.917,-0.00,0.84,0.33,1.70,-1.56,-0.94,-0.02,-0.02,-0.03,0.00
22.918,-0.00,0.84,0.33,-0.23,-0.08,2.09,-0.02,-0.02,-0.03,0.00
22.96,0.09,1.03,0.60,-0.23,-0.08,2.09,-0.02,-0.02,-0.03,0.00
22.981,0.09,1.03,0.60,-0.23,-0.08,2.09,-1.07,-0.03,1.36,0.00
22.984,0.09,1.03,0.60,4.08,-1.82,2.94,-1.07,-0.03,1.36,0.00
23.028,0.15,0.73,0.81,4.08,-1.82,2.94,-1.07,-0.03,1.36,0.00
23.048,0.15,0.73,0.81,4.08,-1.82,2.94,0.87,0.06,-1.60,0.00
23.049,0.15,0.73,0.81,-6.31,2.25,-5.92,0.87,0.06,-1.60,0.00
23.075,-0.10,0.95,0.59,-6.31,2.25,-5.92,0.87,0.06,-1.60,0.00
23.129,-0.10,0.95,0.59,-6.31,2.25,-5.92,0.73,0.11,-1.99,0.00
23.13,-0.10,0.95,0.59,0.47,-1.16,0.84,0.73,0.11,-1.99,0.00
23.154,-0.20,1.06,0.32,0.47,-1.16,0.84,0.73,0.11,-1.99,0.00
23.18,-0.20,1.06,0.32,0.47,-1.16,0.84,-0.49,0.01,0.31,0.00
23.181,-0.20,1.06,0.32,4.26,-2.85,2.62,-0.49,0.01,0.31,0.00
23.213,0.12,0.82,0.57,4.26,-2.85,2.62,-0.49,0.01,0.31,0.00
23.247,0.12,0.82,0.57,4.26,-2.85,2.62,0.63,-0.17,0.11,0.00
23.248,0.12,0.82,0.57,-1.78,1.74,-4.93,0.63,-0.17,0.11,0.00
23.273,0.32,0.78,0.52,-1.78,1.74,-4.93,0.63,-0.17,0.11,0.00
23.321,0.32,0.78,0.52,-1.78,1.74,-4.93,0.37,-0.31,1.33,0.00
23.327,0.32,0.78,0.52,-0.30,-0.51,-2.37,0.37,-0.31,1.33,0.00
23.353,-0.08,0.88,0.32,-0.30,-0.51,-2.37,0.37,-0.31,1.33,0.00
23.377,-0.08,0.88,0.32,-0.30,-0.51,-2.37,1.24,-0.16,-0.75,0.00
23.378,-0.08,0.88,0.32,-0.21,-0.58,-0.17,1.24,-0.16,-0.75,0.00
23.43,-0.04,0.94,0.53,-0.21,-0.58,-0.17,1.24,-0.16,-0.75,0.00
23.455,-0.04,0.94,0.53,-0.21,-0.58,-0.17,-1.34,0.23,-0.22,0.00
23.457,-0.04,0.94,0.53,1.58,-0.52,4.42,-1.34,0.23,-0.22,0.00
23.473,-0.05,0.92,0.65,1.58,-0.52,4.42,-1.34,0.23,-0.22,0.00
23.52,-0.05,0.92,0.65,1.58,-0.52,4.42,-0.90,0.21,-0.05,0.00
23.533,-0.05,0.92,0.65,-0.80,0.79,-0.95,-0.90,0.21,-0.05,0.00
23.554,-0.09,0.94,0.49,-0.80,0.79,-0.95,-0.90,0.21,-0.05,0.00
23.575,-0.09,0.94,0.49,-0.80,0.79,-0.95,-0.17,0.01,-0.45,0.00
23.576,-0.09,0.94,0.49,-0.22,0.37,1.61,-0.17,0.01,-0.45,0.00
23.603,-0.09,0.85,0.70,-0.22,0.37,1.61,-0.17,0.01,-0.45,0.00
23.651,-0.09,0.85,0.70,-0.22,0.37,1.61,-0.66,0.11,-0.41,0.00
23.653,-0.09,0.85,0.70,-0.80,-0.16,0.11,-0.66,0.11,-0.41,0.00
23.68,-0.16,0.85,0.28,-0.80,-0.16,0.11,-0.66,0.11,-0.41,0.00
23.741,-0.16,0.85,0.28,-0.80,-0.16,0.11,1.09,-0.16,-0.62,0.00
23.747,-0.16,0.85,0.28,0.50,-0.70,-0.86,1.09,-0.16,-0.62,0.00
23.764,-0.07,0.84,0.35,0.50,-0.70,-0.86,1.09,-0.16,-0.62,0.00
23.784,-0.07,0.84,0.35,0.50,-0.70,-0.86,0.72,-0.14,0.05,0.00
23.785,-0.07,0.84,0.35,0.46,-0.39,-0.85,0.72,-0.14,0.05,0.00
23.804,-0.06,0.89,0.48,0.46,-0.39,-0.85,0.72,-0.14,0.05,0.00
23.84,-0.06,0.89,0.48,0.46,-0.39,-0.85,-0.23,-0.06,0.22,0.00
23.842,-0.06,0.89,0.48,0.13,0.02,0.98,-0.23,-0.06,0.22,0.00
23.872,0.03,0.84,0.37,0.13,0.02,0.98,-0.23,-0.06,0.22,0.00
23.906,0.03,0.84,0.37,0.13,0.02,0.98,0.38,-0.13,0.36,0.00
23.907,0.03,0.84,0.37,-0.25,0.32,-0.42,0.38,-0.13,0.36,0.00
23.935,-0.08,0.88,0.41,-0.25,0.32,-0.42,0.38,-0.13,0.36,0.00
23.971,-0.08,0.88,0.41,-0.25,0.32,-0.42,0.23,-0.03,-0.19,0.00
23.972,-0.08,0.88,0.41,-0.11,-0.36,-1.16,0.23,-0.03,-0.19,0.00
23.999,-0.04,0.92,0.43,-0.11,-0.36,-1.16,0.23,-0.03,-0.19,0.00
24.045,-0.04,0.92,0.43,-0.11,-0.36,-1.16,-0.32,0.02,0.01,0.00
24.047,-0.04,0.92,0.43,0.02,-0.45,1.54,-0.32,0.02,0.01,0.00
24.084,-0.06,0.88,0.33,0.02,-0.45,1.54,-0.32,0.02,0.01,0.00
24.104,-0.06,0.88,0.33,0.02,-0.45,1.54,0.29,-0.05,0.03,0.00
24.105,-0.06,0.88,0.33,0.40,0.17,0.49,0.29,-0.05,0.03,0.00
24.132,0.01,0.90,0.54,0.40,0.17,0.49,0.29,-0.05,0.03,0.00
24.169,0.01,0.90,0.54,0.40,0.17,0.49,-0.57,0.03,0.33,0.00
24.17,0.01,0.90,0.54,0.04,-0.17,-0.14,-0.57,0.03,0.33,0.00
24.197,0.03,0.91,0.31,0.04,-0.17,-0.14,-0.57,0.03,0.33,0.00
24.24,0.03,0.91,0.31,0.04,-0.17,-0.14,0.10,-0.08,0.32,0.00
24.244,0.03,0.91,0.31,0.31,-0.05,0.87,0.10,-0.08,0.32,0.00
24.278,0.06,0.83,0.52,0.31,-0.05,0.87,0.10,-0.08,0.32,0.00
24.305,0.06,0.83,0.52,0.31,-0.05,0.87,-0.47,0.03,0.30,0.00
24.306,0.06,0.83,0.52,-0.30,0.24,-0.64,-0.47,0.03,0.30,0.00
24.34,0.01,0.91,0.42,-0.30,0.24,-0.64,-0.47,0.03,0.30,0.00
24.367,0.01,0.91,0.42,-0.30,0.24,-0.64,-0.28,0.00,-0.01,0.00
24.368,0.01,0.91,0.42,-0.56,-0.22,1.48,-0.28,0.00,-0.01,0.00
24.395,-0.23,0.90,0.38,-0.56,-0.22,1.48,-0.28,0.00,-0.01,0.00
24.451,-0.23,0.90,0.38,-0.56,-0.22,1.48,0.23,0.07,-1.36,0.00
24.452,-0.23,0.90,0.38,-1.59,0.30,-2.32,0.23,0.07,-1.36,0.00
24.475,-0.17,0.90,0.44,-1.59,0.30,-2.32,0.23,0.07,-1.36,0.00
24.5,-0.17,0.90,0.44,-1.59,0.30,-2.32,0.30,-0.01,-0.89,0.00
24.502,-0.17,0.90,0.44,-0.19,-0.31,0.51,0.30,-0.01,-0.89,0.00
24.535,-0.05,0.86,0.37,-0.19,-0.31,0.51,0.30,-0.01,-0.89,0.00
24.574,-0.05,0.86,0.37,-0.19,-0.31,0.51,0.11,-0.06,0.45,0.00
24.576,-0.05,0.86,0.37,0.79,-0.56,0.10,0.11,-0.06,0.45,0.00
24.594,-0.01,0.82,0.38,0.79,-0.56,0.10,0.11,-0.06,0.45,0.00
24.645,-0.01,0.82,0.38,0.79,-0.56,0.10,0.54,-0.16,0.85,0.00
24.648,-0.01,0.82,0.38,1.15,-0.60,-1.99,0.54,-0.16,0.85,0.00
24.677,-0.00,0.94,0.47,1.15,-0.60,-1.99,0.54,-0.16,0.85,0.00
24.698,-0.00,0.94,0.47,1.15,-0.60,-1.99,-0.10,-0.02,0.48,0.00
24.7,-0.00,0.94,0.47,-0.06,0.15,0.77,-0.10,-0.02,0.48,0.00
24.751,-0.12,0.93,0.41,-0.06,0.15,0.77,-0.10,-0.02,0.48,0.00
24.775,-0.12,0.93,0.41,-0.06,0.15,0.77,0.03,0.07,-0.55,0.00
24.775,-0.12,0.93,0.41,-0.89,0.42,-0.35,0.03,0.07,-0.55,0.00
24.794,-0.01,0.88,0.53,-0.89,0.42,-0.35,0.03,0.07,-0.55,0.00
24.829,-0.01,0.88,0.53,-0.89,0.42,-0.35,-0.70,0.03,0.40,0.00
24.83,-0.01,0.88,0.53,0.87,-0.24,0.47,-0.70,0.03,0.40,0.00
24.857,0.04,0.93,0.53,0.87,-0.24,0.47,-0.70,0.03,0.40,0.00
24.896,0.04,0.93,0.53,0.87,-0.24,0.47,-0.49,-0.02,0.67,0.00
24.897,0.04,0.93,0.53,0.73,0.07,0.60,-0.49,-0.02,0.67,0.00
24.931,0.04,0.92,0.42,0.73,0.07,0.60,-0.49,-0.02,0.67,0.00
24.967,0.04,0.92,0.42,0.73,0.07,0.60,0.17,-0.07,0.32,0.00
24.97,0.04,0.92,0.42,-0.01,0.51,-0.38,0.17,-0.07,0.32,0.00
24.99,0.00,0.92,0.60,-0.01,0.51,-0.38,0.17,-0.07,0.32,0.00
25.051,0.00,0.92,0.60,-0.01,0.51,-0.38,-0.30,0.07,-0.12,0.00
25.053,0.00,0.92,0.60,-0.38,0.32,0.10,-0.30,0.07,-0.12,0.00
25.055,0.00,0.92,0.49,-0.38,0.32,0.10,-0.30,0.07,-0.12,0.00
25.094,0.00,0.92,0.49,-0.38,0.32,0.10,0.09,0.03,-0.28,0.00
25.096,0.00,0.92,0.49,-0.41,0.30,0.89,0.09,0.03,-0.28,0.00
25.129,-0.06,0.87,0.48,-0.41,0.30,0.89,0.09,0.03,-0.28,0.00
25.164,-0.06,0.87,0.48,-0.41,0.30,0.89,0.17,0.06,-0.45,0.00
25.166,-0.06,0.87,0.48,-0.49,-0.39,-1.51,0.17,0.06,-0.45,0.00
25.187,0.01,0.86,0.23,-0.49,-0.39,-1.51,0.17,0.06,-0.45,0.00
25.24,0.01,0.86,0.23,-0.49,-0.39,-1.51,0.54,-0.06,0.27,0.00
25.243,0.01,0.86,0.23,0.70,-0.74,0.96,0.54,-0.06,0.27,0.00
25.263,0.03,0.84,0.49,0.70,-0.74,0.96,0.54,-0.06,0.27,0.00
25.293,0.03,0.84,0.49,0.70,-0.74,0.96,0.33,-0.04,0.09,0.00
25.295,0.03,0.84,0.49,-0.59,1.69,-1.87,0.33,-0.04,0.09,0.00
25.34,0.23,1.05,0.85,-0.59,1.69,-1.87,0.33,-0.04,0.09,0.00
25.369,0.23,1.05,0.85,-0.59,1.69,-1.87,-2.97,0.45,2.06,0.00
25.371,0.23,1.05,0.85,2.32,-2.95,3.38,-2.97,0.45,2.06,0.00
25.386,-0.23,0.93,-0.35,2.32,-2.95,3.38,-2.97,0.45,2.06,0.00
25.437,-0.23,0.93,-0.35,2.32,-2.95,3.38,3.46,-0.48,-1.57,0.00
25.439,-0.23,0.93,-0.35,-0.16,-0.60,1.15,3.46,-0.48,-1.57,0.00
25.463,0.07,0.93,0.76,-0.16,-0.60,1.15,3.46,-0.48,-1.57,0.00
25.491,0.07,0.93,0.76,-0.16,-0.60,1.15,-2.26,0.35,0.31,0.00
25.493,0.07,0.93,0.76,0.79,-1.41,5.35,-2.26,0.35,0.31,0.00
25.525,-0.11,0.92,0.14,0.79,-1.41,5.35,-2.26,0.35,0.31,0.00
25.563,-0.11,0.92,0.14,0.79,-1.41,5.35,0.79,-0.09,-0.74,0.00
25.566,-0.11,0.92,0.14,-1.01,0.11,-2.99,0.79,-0.09,-0.74,0.00
25.584,-0.08,1.21,0.33,-1.01,0.11,-2.99,0.79,-0.09,-0.74,0.00
25.633,-0.08,1.21,0.33,-1.01,0.11,-2.99,-0.72,0.03,0.28,0.00
25.641,-0.08,1.21,0.33,2.30,0.11,6.55,-0.72,0.03,0.28,0.00
25.661,0.07,0.72,-0.11,2.30,0.11,6.55,-0.72,0.03,0.28,0.00
25.689,0.07,0.72,-0.11,2.30,0.11,6.55,3.54,-0.71,-0.67,0.00
25.691,0.07,0.72,-0.11,-2.22,-0.30,-7.14,3.54,-0.71,-0.67,0.00
25.746,-0.10,0.88,0.24,-2.22,-0.30,-7.14,3.54,-0.71,-0.67,0.00
25.767,-0.10,0.88,0.24,-2.22,-0.30,-7.14,-0.43,0.03,-0.79,0.00
25.768,-0.10,0.88,0.24,-0.54,2.15,3.93,-0.43,0.03,-0.79,0.00
25.79,0.21,0.54,1.57,-0.54,2.15,3.93,-0.43,0.03,-0.79,0.00
25.819,0.21,0.54,1.57,-0.54,2.15,3.93,-2.68,0.37,1.14,0.00
25.82,0.21,0.54,1.57,0.09,-0.78,-7.62,-2.68,0.37,1.14,0.00
25.851,-0.16,0.84,-0.31,0.09,-0.78,-7.62,-2.68,0.37,1.14,0.00
25.886,-0.16,0.84,-0.31,0.09,-0.78,-7.62,2.76,-0.43,-0.70,0.00
25.887,-0.16,0.84,-0.31,0.59,-1.65,1.08,2.76,-0.43,-0.70,0.00
25.928,0.02,0.83,0.54,0.59,-1.65,1.08,2.76,-0.43,-0.70,0.00
25.961,0.02,0.83,0.54,0.59,-1.65,1.08,-1.24,0.12,0.50,0.00
25.964,0.02,0.83,0.54,2.28,-0.25,9.91,-1.24,0.12,0.50,0.00
25.98,0.18,0.37,1.94,2.28,-0.25,9.91,-1.24,0.12,0.50,0.00
26.017,0.18,0.37,1.94,2.28,-0.25,9.91,-2.34,0.52,0.98,0.00
26.018,0.18,0.37,1.94,-1.69,0.35,-8.58,-2.34,0.52,0.98,0.00
26.049,-0.23,0.85,0.02,-1.69,0.35,-8.58,-2.34,0.52,0.98,0.00
26.084,-0.23,0.85,0.02,-1.69,0.35,-8.58,2.44,-0.32,-1.30,0.00
26.086,-0.23,0.85,0.02,0.50,-1.26,-0.61,2.44,-0.32,-1.30,0.00
26.112,0.00,0.78,0.64,0.50,-1.26,-0.61,2.44,-0.32,-1.30,0.00
26.149,0.00,0.78,0.64,0.50,-1.26,-0.61,-0.92,0.06,0.10,0.00
26.15,0.00,0.78,0.64,0.77,-1.73,-0.78,-0.92,0.06,0.10,0.00
26.177,-0.00,1.08,0.03,0.77,-1.73,-0.78,-0.92,0.06,0.10,0.00
26.215,-0.00,1.08,0.03,0.77,-1.73,-0.78,-2.26,0.11,2.26,0.00
26.216,-0.00,1.08,0.03,2.43,-0.51,5.02,-2.26,0.11,2.26,0.00
26.251,0.09,0.95,0.41,2.43,-0.51,5.02,-2.26,0.11,2.26,0.00
26.284,0.09,0.95,0.41,2.43,-0.51,5.02,0.65,-0.32,-0.08,0.00
26.285,0.09,0.95,0.41,-1.83,1.50,-2.89,0.65,-0.32,-0.08,0.00
26.309,-0.15,1.02,0.44,-1.83,1.50,-2.89,0.65,-0.32,-0.08,0.00
26.361,-0.15,1.02,0.44,-1.83,1.50,-2.89,-0.25,0.08,-1.21,0.00
26.362,-0.15,1.02,0.44,-0.54,0.02,3.86,-0.25,0.08,-1.21,0.00
26.384,-0.08,0.87,0.72,-0.54,0.02,3.86,-0.25,0.08,-1.21,0.00
26.413,-0.08,0.87,0.72,-0.54,0.02,3.86,-0.11,0.04,-0.85,0.00
26.414,-0.08,0.87,0.72,-0.64,0.06,-1.71,-0.11,0.04,-0.85,0.00
26.444,0.04,0.84,0.35,-0.64,0.06,-1.71,-0.11,0.04,-0.85,0.00
26.48,0.04,0.84,0.35,-0.64,0.06,-1.71,0.16,-0.15,0.15,0.00
26.482,0.04,0.84,0.35,0.69,-0.09,1.59,0.16,-0.15,0.15,0.00
26.507,-0.10,0.85,0.49,0.69,-0.09,1.59,0.16,-0.15,0.15,0.00
26.55,-0.10,0.85,0.49,0.69,-0.09,1.59,0.55,-0.12,-0.50,0.00
26.554,-0.10,0.85,0.49,-0.78,0.29,-1.99,0.55,-0.12,-0.50,0.00
26.589,-0.16,0.90,0.39,-0.78,0.29,-1.99,0.55,-0.12,-0.50,0.00
26.611,-0.16,0.90,0.39,-0.78,0.29,-1.99,0.33,-0.06,-0.35,0.00
26.612,-0.16,0.90,0.39,0.71,-0.81,1.26,0.33,-0.06,-0.35,0.00
26.643,-0.03,0.82,0.39,0.71,-0.81,1.26,0.33,-0.06,-0.35,0.00
26.679,-0.03,0.82,0.39,0.71,-0.81,1.26,0.31,-0.07,0.19,0.00
26.68,-0.03,0.82,0.39,0.09,-0.40,-1.40,0.31,-0.07,0.19,0.00
26.711,-0.04,0.83,0.38,0.09,-0.40,-1.40,0.31,-0.07,0.19,0.00
26.757,-0.04,0.83,0.38,0.09,-0.40,-1.40,0.35,-0.09,0.32,0.00
26.759,-0.04,0.83,0.38,0.88,-0.96,-0.60,0.35,-0.09,0.32,0.00
26.777,0.03,0.87,0.56,0.88,-0.96,-0.60,0.35,-0.09,0.32,0.00
26.811,0.03,0.87,0.56,0.88,-0.96,-0.60,-0.75,0.03,0.26,0.00
26.827,0.03,0.87,0.56,-0.45,0.36,0.35,-0.75,0.03,0.26,0.00
26.856,-0.06,0.94,0.37,-0.45,0.36,0.35,-0.75,0.03,0.26,0.00
26.877,-0.06,0.94,0.37,-0.45,0.36,0.35,0.52,-0.13,-0.01,0.00
26.878,-0.06,0.94,0.37,0.32,0.45,-0.60,0.52,-0.13,-0.01,0.00
26.911,-0.05,0.95,0.68,0.32,0.45,-0.60,0.52,-0.13,-0.01,0.00
26.941,-0.05,0.95,0.68,0.32,0.45,-0.60,-0.51,0.03,-0.11,0.00
26.942,-0.05,0.95,0.68,-0.30,0.09,0.66,-0.51,0.03,-0.11,0.00
26.981,-0.03,0.94,0.23,-0.30,0.09,0.66,-0.51,0.03,-0.11,0.00
27.007,-0.03,0.94,0.23,-0.30,0.09,0.66,0.85,-0.09,-0.12,0.00
27.008,-0.03,0.94,0.23,0.26,0.17,0.18,0.85,-0.09,-0.12,0.00
27.043,0.02,0.90,0.52,0.26,0.17,0.18,0.85,-0.09,-0.12,0.00
27.079,0.02,0.90,0.52,0.26,0.17,0.18,0.22,-0.08,0.31,0.00
27.084,0.02,0.90,0.52,0.48,0.12,-1.04,0.22,-0.08,0.31,0.00
27.103,0.03,0.92,0.56,0.48,0.12,-1.04,0.22,-0.08,0.31,0.00
27.153,0.03,0.92,0.56,0.48,0.12,-1.04,-0.35,0.01,0.43,0.00
27.154,0.03,0.92,0.56,0.49,-0.63,-0.28,-0.35,0.01,0.43,0.00
27.171,0.11,0.88,0.32,0.49,-0.63,-0.28,-0.35,0.01,0.43,0.00
27.205,0.11,0.88,0.32,0.49,-0.63,-0.28,0.12,-0.09,0.52,0.00
27.206,0.11,0.88,0.32,0.39,-0.25,0.25,0.12,-0.09,0.52,0.00
27.233,0.08,0.91,0.43,0.39,-0.25,0.25,0.12,-0.09,0.52,0.00
27.277,0.08,0.91,0.43,0.39,-0.25,0.25,-0.06,-0.04,0.16,0.00
27.279,0.08,0.91,0.43,0.03,0.31,-0.07,-0.06,-0.04,0.16,0.00
27.3,0.10,0.98,0.40,0.03,0.31,-0.07,-0.06,-0.04,0.16,0.00
27.337,0.10,0.98,0.40,0.03,0.31,-0.07,-0.48,0.08,0.12,0.00
27.338,0.10,0.98,0.40,0.01,-0.00,0.86,-0.48,0.08,0.12,0.00
27.365,0.03,0.94,0.32,0.01,-0.00,0.86,-0.48,0.08,0.12,0.00
27.403,0.03,0.94,0.32,0.01,-0.00,0.86,0.53,-0.07,-0.40,0.00
27.404,0.03,0.94,0.32,-0.45,0.00,-0.18,0.53,-0.07,-0.40,0.00
27.432,-0.00,0.89,0.49,-0.45,0.00,-0.18,0.53,-0.07,-0.40,0.00
27.481,-0.00,0.89,0.49,-0.45,0.00,-0.18,0.06,-0.01,-0.28,0.00
27.484,-0.00,0.89,0.49,0.31,-0.55,-1.53,0.06,-0.01,-0.28,0.00
27.498,0.08,0.91,0.26,0.31,-0.55,-1.53,0.06,-0.01,-0.28,0.00
27.535,0.08,0.91,0.26,0.31,-0.55,-1.53,0.34,-0.12,0.09,0.00
27.536,0.08,0.91,0.26,0.02,0.39,0.94,0.34,-0.12,0.09,0.00
27.566,-0.11,0.93,0.50,0.02,0.39,0.94,0.34,-0.12,0.09,0.00
27.601,-0.11,0.93,0.50,0.02,0.39,0.94,-0.17,0.09,-0.73,0.00
27.602,-0.11,0.93,0.50,-0.72,-0.63,-1.67,-0.17,0.09,-0.73,0.00
27.63,-0.14,0.98,-0.01,-0.72,-0.63,-1.67,-0.17,0.09,-0.73,0.00
27.671,-0.14,0.98,-0.01,-0.72,-0.63,-1.67,0.66,-0.09,-0.59,0.00
27.672,-0.14,0.98,-0.01,1.09,-1.15,3.81,0.66,-0.09,-0.59,0.00
27.718,0.10,0.75,0.76,1.09,-1.15,3.81,0.66,-0.09,-0.59,0.00
27.748,0.10,0.75,0.76,1.09,-1.15,3.81,-1.34,-0.04,0.40,0.00
27.749,0.10,0.75,0.76,0.11,-0.17,-2.29,-1.34,-0.04,0.40,0.00
27.766,0.02,0.79,0.48,0.11,-0.17,-2.29,-1.34,-0.04,0.40,0.00
27.799,0.02,0.79,0.48,0.11,-0.17,-2.29,-0.52,-0.09,0.37,0.00
27.8,0.02,0.79,0.48,0.85,-2.40,0.57,-0.52,-0.09,0.37,0.00
27.831,0.19,0.75,0.64,0.85,-2.40,0.57,-0.52,-0.09,0.37,0.00
27.867,0.19,0.75,0.64,0.85,-2.40,0.57,-1.54,0.10,1.28,0.00
27.868,0.19,0.75,0.64,0.10,-1.32,0.27,-1.54,0.10,1.28,0.00
27.893,0.21,0.80,0.45,0.10,-1.32,0.27,-1.54,0.10,1.28,0.00
27.931,0.21,0.80,0.45,0.10,-1.32,0.27,-0.54,-0.02,0.90,0.00
27.932,0.21,0.80,0.45,0.27,-2.06,-0.24,-0.54,-0.02,0.90,0.00
27.978,0.00,0.64,0.93,0.27,-2.06,-0.24,-0.54,-0.02,0.90,0.00
28.014,0.00,0.64,0.93,0.27,-2.06,-0.24,-1.97,0.64,-0.53,0.00
28.014,0.00,0.64,0.93,-0.87,-0.28,0.22,-1.97,0.64,-0.53,0.00
28.027,0.19,0.54,0.75,-0.87,-0.28,0.22,-1.97,0.64,-0.53,0.00
28.079,0.19,0.54,0.75,-0.87,-0.28,0.22,-1.35,0.04,0.53,0.00
28.093,0.19,0.54,0.75,0.57,-1.38,1.83,-1.35,0.04,0.53,0.00
28.093,0.19,0.56,0.93,0.57,-1.38,1.83,-1.35,0.04,0.53,0.00
28.129,0.19,0.56,0.93,0.57,-1.38,1.83,-1.64,0.19,0.88,0.00
28.13,0.19,0.56,0.93,0.42,-0.56,1.78,-1.64,0.19,0.88,0.00
28.164,-0.01,0.77,0.89,0.42,-0.56,1.78,-1.64,0.19,0.88,0.00
28.204,-0.01,0.77,0.89,0.42,-0.56,1.78,0.14,-0.01,-0.41,0.00
28.205,-0.01,0.77,0.89,0.99,1.94,0.51,0.14,-0.01,-0.41,0.00
28.225,0.14,0.91,0.64,0.99,1.94,0.51,0.14,-0.01,-0.41,0.00
28.268,0.14,0.91,0.64,0.99,1.94,0.51,1.42,-0.51,-0.68,0.00
28.27,0.14,0.91,0.64,-0.92,0.27,-2.03,1.42,-0.51,-0.68,0.00
28.302,0.27,0.59,0.68,-0.92,0.27,-2.03,1.42,-0.51,-0.68,0.00
28.328,0.27,0.59,0.68,-0.92,0.27,-2.03,-0.52,-0.42,1.21,0.00
28.329,0.27,0.59,0.68,2.20,-1.64,1.35,-0.52,-0.42,1.21,0.00
28.369,0.35,0.57,0.80,2.20,-1.64,1.35,-0.52,-0.42,1.21,0.00
28.405,0.35,0.57,0.80,2.20,-1.64,1.35,-0.22,-0.11,0.71,0.00
28.408,0.35,0.57,0.80,-1.33,0.89,-0.98,-0.22,-0.11,0.71,0.00
28.424,-0.11,1.14,0.41,-1.33,0.89,-0.98,-0.22,-0.11,0.71,0.00
28.481,-0.11,1.14,0.41,-1.33,0.89,-0.98,0.20,-0.05,0.68,0.00
28.483,-0.11,1.14,0.41,3.00,-2.50,1.07,0.20,-0.05,0.68,0.00
28.49,0.42,0.83,1.01,3.00,-2.50,1.07,0.20,-0.05,0.68,0.00
28.525,0.42,0.83,1.01,3.00,-2.50,1.07,-0.70,0.30,1.15,0.00
28.526,0.42,0.83,1.01,0.10,-0.11,2.95,-0.70,0.30,1.15,0.00
28.564,0.09,0.72,0.75,0.10,-0.11,2.95,-0.70,0.30,1.15,0.00
28.61,0.09,0.72,0.75,0.10,-0.11,2.95,0.27,0.57,-1.73,0.00
28.611,0.09,0.72,0.75,-4.01,1.76,-2.53,0.27,0.57,-1.73,0.00
28.621,0.01,0.90,0.37,-4.01,1.76,-2.53,0.27,0.57,-1.73,0.00
28.671,0.01,0.90,0.37,-4.01,1.76,-2.53,2.91,-0.57,-1.68,0.00
28.681,0.01,0.90,0.37,1.06,0.07,-3.88,2.91,-0.57,-1.68,0.00
28.689,0.26,0.70,0.18,1.06,0.07,-3.88,2.91,-0.57,-1.68,0.00
28.723,0.26,0.70,0.18,1.06,0.07,-3.88,2.64,-0.97,0.52,0.00
28.725,0.26,0.70,0.18,0.73,-1.52,-2.94,2.64,-0.97,0.52,0.00
28.758,0.18,0.71,0.24,0.73,-1.52,-2.94,2.64,-0.97,0.52,0.00
28.789,0.18,0.71,0.24,0.73,-1.52,-2.94,1.36,-0.72,-0.10,0.00
28.79,0.18,0.71,0.24,-1.26,-2.11,-1.08,1.36,-0.72,-0.10,0.00
28.818,-0.07,0.83,0.38,-1.26,-2.11,-1.08,1.36,-0.72,-0.10,0.00
28.858,-0.07,0.83,0.38,-1.26,-2.11,-1.08,-0.92,-0.33,-1.78,0.00
28.861,-0.07,0.83,0.38,-0.23,-3.26,1.93,-0.92,-0.33,-1.78,0.00
28.902,0.40,0.42,1.09,-0.23,-3.26,1.93,-0.92,-0.33,-1.78,0.00
28.921,0.40,0.42,1.09,-0.23,-3.26,1.93,-5.38,0.23,1.47,0.00
28.922,0.40,0.42,1.09,0.35,-2.39,3.46,-5.38,0.23,1.47,0.00
28.969,0.23,0.85,0.63,0.35,-2.39,3.46,-5.38,0.23,1.47,0.00
28.988,0.23,0.85,0.63,0.35,-2.39,3.46,-0.21,-0.81,-0.16,0.00
28.988,0.23,0.85,0.63,1.18,2.43,0.06,-0.21,-0.81,-0.16,0.00
29.015,0.45,0.53,1.08,1.18,2.43,0.06,-0.21,-0.81,-0.16,0.00
29.067,0.45,0.53,1.08,1.18,2.43,0.06,-0.92,-0.31,1.01,0.00
29.068,0.45,0.53,1.08,-0.16,0.89,0.18,-0.92,-0.31,1.01,0.00
29.094,0.31,0.81,0.70,-0.16,0.89,0.18,-0.92,-0.31,1.01,0.00
29.119,0.31,0.81,0.70,-0.16,0.89,0.18,0.66,-0.73,0.72,0.00
29.12,0.31,0.81,0.70,4.12,-0.36,1.12,0.66,-0.73,0.72,0.00
29.166,0.50,0.61,0.68,4.12,-0.36,1.12,0.66,-0.73,0.72,0.00
29.185,0.50,0.61,0.68,4.12,-0.36,1.12,0.65,-0.76,1.26,0.00
29.186,0.50,0.61,0.68,-0.21,1.70,-1.17,0.65,-0.76,1.26,0.00
29.213,0.56,0.57,0.69,-0.21,1.70,-1.17,0.65,-0.76,1.26,0.00
29.271,0.56,0.57,0.69,-0.21,1.70,-1.17,0.24,-0.26,0.92,0.00
29.273,0.56,0.57,0.69,0.15,-0.61,1.00,0.24,-0.26,0.92,0.00
29.281,0.37,0.55,0.64,0.15,-0.61,1.00,0.24,-0.26,0.92,0.00
29.317,0.37,0.55,0.64,0.15,-0.61,1.00,0.02,0.36,-0.43,0.00
29.318,0.37,0.55,0.64,-1.80,0.72,0.09,0.02,0.36,-0.43,0.00
29.345,0.31,0.59,0.78,-1.80,0.72,0.09,0.02,0.36,-0.43,0.00
29.397,0.31,0.59,0.78,-1.80,0.72,0.09,0.59,0.12,-0.62,0.00
29.399,0.31,0.59,0.78,-0.43,-0.18,-4.03,0.59,0.12,-0.62,0.00
29.422,0.25,0.69,0.62,-0.43,-0.18,-4.03,0.59,0.12,-0.62,0.00
