time,gFx,gFy,gFz,ax,ay,az,wx,wy,wz,P
0.003,0.14,0.51,0.83,-0.53,0.08,0.78,-0.05,0.21,-0.56,0.00
0.012,0.14,0.51,0.83,-0.53,0.08,0.78,-0.23,0.09,0.10,0.00
0.014,0.14,0.51,0.83,0.24,-0.42,0.01,-0.23,0.09,0.10,0.00
0.067,0.09,0.53,0.91,0.24,-0.42,0.01,-0.23,0.09,0.10,0.00
0.077,0.09,0.53,0.91,0.24,-0.42,0.01,0.03,0.03,-0.04,0.00
0.079,0.09,0.53,0.91,-0.13,-0.27,0.86,0.03,0.03,-0.04,0.00
0.133,-0.05,0.61,0.80,-0.13,-0.27,0.86,0.03,0.03,-0.04,0.00
0.142,-0.05,0.61,0.80,-0.13,-0.27,0.86,-0.15,0.23,-0.58,0.00
0.144,-0.05,0.61,0.80,-1.26,0.61,-0.34,-0.15,0.23,-0.58,0.00
0.199,0.07,0.50,0.79,-1.26,0.61,-0.34,-0.15,0.23,-0.58,0.00
0.208,0.07,0.50,0.79,-1.26,0.61,-0.34,-0.09,0.16,-0.20,0.00
0.21,0.07,0.50,0.79,0.13,-0.39,-0.50,-0.09,0.16,-0.20,0.00
0.265,0.03,0.57,0.82,0.13,-0.39,-0.50,-0.09,0.16,-0.20,0.00
0.276,0.03,0.57,0.82,0.13,-0.39,-0.50,-0.00,0.17,-0.09,0.00
0.277,0.03,0.57,0.82,-0.07,0.29,-0.18,-0.00,0.17,-0.09,0.00
0.331,0.09,0.59,0.79,-0.07,0.29,-0.18,-0.00,0.17,-0.09,0.00
0.344,0.09,0.59,0.79,-0.07,0.29,-0.18,0.27,-0.02,0.23,0.00
0.346,0.09,0.59,0.79,0.37,0.32,-0.44,0.27,-0.02,0.23,0.00
0.397,0.17,0.53,0.75,0.37,0.32,-0.44,0.27,-0.02,0.23,0.00
0.406,0.17,0.53,0.75,0.37,0.32,-0.44,0.42,-0.34,0.67,0.00
0.408,0.17,0.53,0.75,0.78,-0.47,-0.58,0.42,-0.34,0.67,0.00
0.466,0.16,0.49,0.82,0.78,-0.47,-0.58,0.42,-0.34,0.67,0.00
0.474,0.16,0.49,0.82,0.78,-0.47,-0.58,-0.32,-0.28,0.97,0.00
0.475,0.16,0.49,0.82,0.20,-0.69,-0.02,-0.32,-0.28,0.97,0.00
0.529,0.15,0.42,0.85,0.20,-0.69,-0.02,-0.32,-0.28,0.97,0.00
0.542,0.15,0.42,0.85,0.20,-0.69,-0.02,-0.50,-0.13,0.36,0.00
0.543,0.15,0.42,0.85,-0.17,-1.05,0.18,-0.50,-0.13,0.36,0.00
0.595,-0.04,0.48,0.87,-0.17,-1.05,0.18,-0.50,-0.13,0.36,0.00
0.604,-0.04,0.48,0.87,-0.17,-1.05,0.18,-0.55,0.47,-1.37,0.00
0.606,-0.04,0.48,0.87,-1.45,-0.19,0.11,-0.55,0.47,-1.37,0.00
0.661,-0.21,0.57,1.08,-1.45,-0.19,0.11,-0.55,0.47,-1.37,0.00
0.672,-0.21,0.57,1.08,-1.45,-0.19,0.11,-0.33,0.59,-1.90,0.00
0.673,-0.21,0.57,1.08,-2.38,0.71,2.08,-0.33,0.59,-1.90,0.00
0.727,-0.13,0.59,1.08,-2.38,0.71,2.08,-0.33,0.59,-1.90,0.00
0.74,-0.13,0.59,1.08,-2.38,0.71,2.08,-0.03,0.34,-1.47,0.00
0.741,-0.13,0.59,1.08,-0.64,1.04,1.98,-0.03,0.34,-1.47,0.00
0.793,0.02,0.54,1.17,-0.64,1.04,1.98,-0.03,0.34,-1.47,0.00
0.802,0.02,0.54,1.17,-0.64,1.04,1.98,-0.18,-0.02,-0.29,0.00
0.803,0.02,0.54,1.17,0.94,0.65,2.91,-0.18,-0.02,-0.29,0.00
0.859,0.07,0.48,1.10,0.94,0.65,2.91,-0.18,-0.02,-0.29,0.00
0.87,0.07,0.48,1.10,0.94,0.65,2.91,-0.56,-0.38,1.25,0.00
0.871,0.07,0.48,1.10,0.85,0.34,2.01,-0.56,-0.38,1.25,0.00
0.925,-0.01,0.34,1.23,0.85,0.34,2.01,-0.56,-0.38,1.25,0.00
0.94,-0.01,0.34,1.23,0.85,0.34,2.01,-1.06,-0.03,0.41,0.00
0.941,-0.01,0.34,1.23,0.59,-0.74,2.11,-1.06,-0.03,0.41,0.00
0.991,0.10,0.37,0.87,0.59,-0.74,2.11,-1.06,-0.03,0.41,0.00
1.0,0.10,0.37,0.87,0.59,-0.74,2.11,-0.48,-0.29,1.11,0.00
1.001,0.10,0.37,0.87,0.55,0.23,-0.67,-0.48,-0.29,1.11,0.00
1.057,0.03,0.41,0.72,0.55,0.23,-0.67,-0.48,-0.29,1.11,0.00
1.067,0.03,0.41,0.72,0.55,0.23,-0.67,0.57,-0.22,-0.08,0.00
1.068,0.03,0.41,0.72,-0.25,0.38,-1.99,0.57,-0.22,-0.08,0.00
1.123,0.07,0.39,0.70,-0.25,0.38,-1.99,0.57,-0.22,-0.08,0.00
1.135,0.07,0.39,0.70,-0.25,0.38,-1.99,0.83,-0.17,-0.27,0.00
1.137,0.07,0.39,0.70,0.15,-0.35,-1.98,0.83,-0.17,-0.27,0.00
1.189,0.11,0.39,0.70,0.15,-0.35,-1.98,0.83,-0.17,-0.27,0.00
1.198,0.11,0.39,0.70,0.15,-0.35,-1.98,0.40,-0.25,0.54,0.00
1.199,0.11,0.39,0.70,0.22,-0.63,-1.82,0.40,-0.25,0.54,0.00
1.255,0.10,0.41,0.74,0.22,-0.63,-1.82,0.40,-0.25,0.54,0.00
1.265,0.10,0.41,0.74,0.22,-0.63,-1.82,0.30,-0.13,0.24,0.00
1.266,0.10,0.41,0.74,-0.04,-0.58,-1.32,0.30,-0.13,0.24,0.00
1.321,0.11,0.47,0.77,-0.04,-0.58,-1.32,0.30,-0.13,0.24,0.00
1.334,0.11,0.47,0.77,-0.04,-0.58,-1.32,0.24,-0.11,0.22,0.00
1.335,0.11,0.47,0.77,-0.17,-0.12,-0.94,0.24,-0.11,0.22,0.00
1.387,0.11,0.56,0.90,-0.17,-0.12,-0.94,0.24,-0.11,0.22,0.00
1.396,0.11,0.56,0.90,-0.17,-0.12,-0.94,0.31,-0.03,-0.06,0.00
1.397,0.11,0.56,0.90,-0.14,0.52,0.42,0.31,-0.03,-0.06,0.00
1.453,0.06,0.53,1.12,-0.14,0.52,0.42,0.31,-0.03,-0.06,0.00
1.464,0.06,0.53,1.12,-0.14,0.52,0.42,-0.18,0.22,-0.29,0.00
1.465,0.06,0.53,1.12,-0.43,0.32,2.50,-0.18,0.22,-0.29,0.00
1.519,0.12,0.44,1.20,-0.43,0.32,2.50,-0.18,0.22,-0.29,0.00
1.528,0.12,0.44,1.20,-0.43,0.32,2.50,-1.09,0.32,0.39,0.00
1.528,0.12,0.44,1.20,0.31,0.02,3.01,-1.09,0.32,0.39,0.00
1.585,0.04,0.52,0.96,0.31,0.02,3.01,-1.09,0.32,0.39,0.00
1.594,0.04,0.52,0.96,0.31,0.02,3.01,-0.02,0.11,-0.37,0.00
1.595,0.04,0.52,0.96,-0.42,0.90,0.67,-0.02,0.11,-0.37,0.00
1.651,-0.04,0.42,1.09,-0.42,0.90,0.67,-0.02,0.11,-0.37,0.00
1.662,-0.04,0.42,1.09,-0.42,0.90,0.67,-0.01,0.18,-0.89,0.00
1.662,-0.04,0.42,1.09,-0.88,-0.07,1.83,-0.01,0.18,-0.89,0.00
1.717,-0.23,0.37,0.95,-0.88,-0.07,1.83,-0.01,0.18,-0.89,0.00
1.726,-0.23,0.37,0.95,-0.88,-0.07,1.83,-0.72,0.56,-2.18,0.00
1.726,-0.23,0.37,0.95,-1.88,-0.12,0.25,-0.72,0.56,-2.18,0.00
1.783,-0.15,0.38,0.69,-1.88,-0.12,0.25,-0.72,0.56,-2.18,0.00
1.792,-0.15,0.38,0.69,-1.88,-0.12,0.25,0.76,0.34,-2.16,0.00
1.793,-0.15,0.38,0.69,-0.37,-0.25,-2.15,0.76,0.34,-2.16,0.00
1.849,-0.10,0.41,0.74,-0.37,-0.25,-2.15,0.76,0.34,-2.16,0.00
1.859,-0.10,0.41,0.74,-0.37,-0.25,-2.15,0.44,0.02,-0.21,0.00
1.861,-0.10,0.41,0.74,0.26,-0.26,-1.46,0.44,0.02,-0.21,0.00
1.915,0.02,0.34,0.89,0.26,-0.26,-1.46,0.44,0.02,-0.21,0.00
1.924,0.02,0.34,0.89,0.26,-0.26,-1.46,-0.36,-0.18,1.08,0.00
1.926,0.02,0.34,0.89,1.18,-0.95,-0.11,-0.36,-0.18,1.08,0.00
1.981,-0.02,0.40,0.83,1.18,-0.95,-0.11,-0.36,-0.18,1.08,0.00
1.99,-0.02,0.40,0.83,1.18,-0.95,-0.11,-0.27,-0.19,1.23,0.00
1.992,-0.02,0.40,0.83,0.25,-0.17,-0.77,-0.27,-0.19,1.23,0.00
2.047,-0.06,0.45,0.74,0.25,-0.17,-0.77,-0.27,-0.19,1.23,0.00
2.058,-0.06,0.45,0.74,0.25,-0.17,-0.77,0.54,0.00,-0.02,0.00
2.06,-0.06,0.45,0.74,-0.04,0.23,-1.09,0.54,0.00,-0.02,0.00
2.113,0.09,0.45,1.19,-0.04,0.23,-1.09,0.54,0.00,-0.02,0.00
2.122,0.09,0.45,1.19,-0.04,0.23,-1.09,-0.23,-0.14,0.96,0.00
2.123,0.09,0.45,1.19,1.07,0.10,2.84,-0.23,-0.14,0.96,0.00
2.179,0.10,0.53,0.97,1.07,0.10,2.84,-0.23,-0.14,0.96,0.00
2.188,0.10,0.53,0.97,1.07,0.10,2.84,-0.04,-0.26,1.23,0.00
2.189,0.10,0.53,0.97,0.56,1.11,0.61,-0.04,-0.26,1.23,0.00
2.245,0.06,0.42,1.31,0.56,1.11,0.61,-0.04,-0.26,1.23,0.00
2.255,0.06,0.42,1.31,0.56,1.11,0.61,-0.61,0.03,0.53,0.00
2.256,0.06,0.42,1.31,0.77,-0.58,3.85,-0.61,0.03,0.53,0.00
2.311,0.22,0.34,0.84,0.77,-0.58,3.85,-0.61,0.03,0.53,0.00
2.32,0.22,0.34,0.84,0.77,-0.58,3.85,-0.39,-0.38,1.51,0.00
2.321,0.22,0.34,0.84,1.12,-0.19,-0.84,-0.39,-0.38,1.51,0.00
2.377,0.09,0.42,0.90,1.12,-0.19,-0.84,-0.39,-0.38,1.51,0.00
2.386,0.09,0.42,0.90,1.12,-0.19,-0.84,0.18,-0.26,0.19,0.00
2.387,0.09,0.42,0.90,-0.58,0.61,-0.22,0.18,-0.26,0.19,0.00
2.444,-0.02,0.44,0.74,-0.58,0.61,-0.22,0.18,-0.26,0.19,0.00
2.455,-0.02,0.44,0.74,-0.58,0.61,-0.22,0.69,0.14,-1.76,0.00
2.455,-0.02,0.44,0.74,-0.91,-0.10,-1.81,0.69,0.14,-1.76,0.00
2.509,0.07,0.38,0.81,-0.91,-0.10,-1.81,0.69,0.14,-1.76,0.00
2.518,0.07,0.38,0.81,-0.91,-0.10,-1.81,0.28,0.01,-0.63,0.00
2.519,0.07,0.38,0.81,0.12,-0.68,-0.84,0.28,0.01,-0.63,0.00
2.575,0.10,0.42,0.96,0.12,-0.68,-0.84,0.28,0.01,-0.63,0.00
2.584,0.10,0.42,0.96,0.12,-0.68,-0.84,-0.12,-0.09,0.23,0.00
2.585,0.10,0.42,0.96,0.18,-0.21,0.65,-0.12,-0.09,0.23,0.00
2.641,0.09,0.42,1.10,0.18,-0.21,0.65,-0.12,-0.09,0.23,0.00
2.652,0.09,0.42,1.10,0.18,-0.21,0.65,-0.56,0.08,0.05,0.00
2.653,0.09,0.42,1.10,0.11,0.12,1.86,-0.56,0.08,0.05,0.00
2.707,0.05,0.36,1.13,0.11,0.12,1.86,-0.56,0.08,0.05,0.00
2.716,0.05,0.36,1.13,0.11,0.12,1.86,-0.68,0.19,-0.09,0.00
2.717,0.05,0.36,1.13,-1.01,0.13,1.65,-0.68,0.19,-0.09,0.00
2.773,-0.12,0.45,1.05,-1.01,0.13,1.65,-0.68,0.19,-0.09,0.00
2.782,-0.12,0.45,1.05,-1.01,0.13,1.65,0.01,0.41,-1.67,0.00
2.783,-0.12,0.45,1.05,-1.28,0.76,1.18,0.01,0.41,-1.67,0.00
2.839,-0.13,0.30,1.09,-1.28,0.76,1.18,0.01,0.41,-1.67,0.00
2.85,-0.13,0.30,1.09,-1.28,0.76,1.18,-0.65,0.38,-1.30,0.00
2.85,-0.13,0.30,1.09,-0.77,-0.36,1.45,-0.65,0.38,-1.30,0.00
2.905,0.01,0.24,0.78,-0.77,-0.36,1.45,-0.65,0.38,-1.30,0.00
2.914,0.01,0.24,0.78,-0.77,-0.36,1.45,-0.27,-0.03,0.05,0.00
2.915,0.01,0.24,0.78,0.12,-0.41,-1.94,-0.27,-0.03,0.05,0.00
2.971,-0.24,0.41,0.73,0.12,-0.41,-1.94,-0.27,-0.03,0.05,0.00
2.98,-0.24,0.41,0.73,0.12,-0.41,-1.94,0.91,0.44,-1.76,0.00
2.981,-0.24,0.41,0.73,-1.33,0.58,-2.03,0.91,0.44,-1.76,0.00
3.037,-0.12,0.38,0.87,-1.33,0.58,-2.03,0.91,0.44,-1.76,0.00
3.048,-0.12,0.38,0.87,-1.33,0.58,-2.03,0.63,0.24,-0.76,0.00
3.049,-0.12,0.38,0.87,0.40,-0.13,-0.40,0.63,0.24,-0.76,0.00
3.103,-0.06,0.40,0.86,0.40,-0.13,-0.40,0.63,0.24,-0.76,0.00
3.113,-0.06,0.40,0.86,0.40,-0.13,-0.40,0.09,-0.17,0.81,0.00
3.114,-0.06,0.40,0.86,0.74,-0.05,-0.45,0.09,-0.17,0.81,0.00
3.169,-0.11,0.47,0.66,0.74,-0.05,-0.45,0.09,-0.17,0.81,0.00
3.178,-0.11,0.47,0.66,0.74,-0.05,-0.45,0.95,-0.04,0.32,0.00
3.179,-0.11,0.47,0.66,0.17,0.13,-1.88,0.95,-0.04,0.32,0.00
3.236,-0.04,0.48,0.81,0.17,0.13,-1.88,0.95,-0.04,0.32,0.00
3.263,-0.04,0.48,0.81,0.17,0.13,-1.88,0.57,-0.11,0.49,0.00
3.269,-0.04,0.48,0.81,0.56,-0.19,-0.46,0.57,-0.11,0.49,0.00
3.301,0.11,0.43,1.12,0.56,-0.19,-0.46,0.57,-0.11,0.49,0.00
3.31,0.11,0.43,1.12,0.56,-0.19,-0.46,-0.87,-0.40,1.53,0.00
3.311,0.11,0.43,1.12,1.35,-0.44,2.36,-0.87,-0.40,1.53,0.00
3.374,0.09,0.55,1.04,1.35,-0.44,2.36,-0.87,-0.40,1.53,0.00
3.377,0.09,0.55,1.04,1.35,-0.44,2.36,-0.21,-0.36,1.12,0.00
3.378,0.09,0.55,1.04,0.04,1.66,0.59,-0.21,-0.36,1.12,0.00
3.434,0.15,0.41,1.32,0.04,1.66,0.59,-0.21,-0.36,1.12,0.00
3.473,0.15,0.41,1.32,0.04,1.66,0.59,-0.31,-0.10,0.20,0.00
3.477,0.15,0.41,1.32,0.95,-0.14,4.11,-0.31,-0.10,0.20,0.00
3.499,0.18,0.39,0.84,0.95,-0.14,4.11,-0.31,-0.10,0.20,0.00
3.508,0.18,0.39,0.84,0.95,-0.14,4.11,-0.35,-0.38,0.96,0.00
3.509,0.18,0.39,0.84,0.86,-0.05,-0.73,-0.35,-0.38,0.96,0.00
3.571,0.13,0.40,0.80,0.86,-0.05,-0.73,-0.35,-0.38,0.96,0.00
3.576,0.13,0.40,0.80,0.86,-0.05,-0.73,0.25,-0.27,0.26,0.00
3.576,0.13,0.40,0.80,-0.48,-0.02,-1.43,0.25,-0.27,0.26,0.00
3.632,0.04,0.38,0.71,-0.48,-0.02,-1.43,0.25,-0.27,0.26,0.00
3.669,0.04,0.38,0.71,-0.48,-0.02,-1.43,0.42,0.05,-0.68,0.00
3.673,0.04,0.38,0.71,-0.68,-0.52,-1.78,0.42,0.05,-0.68,0.00
3.697,0.15,0.36,0.67,-0.68,-0.52,-1.78,0.42,0.05,-0.68,0.00
3.706,0.15,0.36,0.67,-0.68,-0.52,-1.78,0.26,-0.16,0.24,0.00
3.706,0.15,0.36,0.67,0.33,-0.90,-2.10,0.26,-0.16,0.24,0.00
3.764,0.08,0.42,0.74,0.33,-0.90,-2.10,0.26,-0.16,0.24,0.00
3.772,0.08,0.42,0.74,0.33,-0.90,-2.10,0.26,-0.09,-0.01,0.00
3.773,0.08,0.42,0.74,-0.39,-0.41,-1.36,0.26,-0.09,-0.01,0.00
3.829,0.05,0.51,0.74,-0.39,-0.41,-1.36,0.26,-0.09,-0.01,0.00
3.863,0.05,0.51,0.74,-0.39,-0.41,-1.36,0.49,0.02,-0.59,0.00
3.867,0.05,0.51,0.74,-0.55,0.76,-0.75,0.49,0.02,-0.59,0.00
3.895,0.04,0.60,1.06,-0.55,0.76,-0.75,0.49,0.02,-0.59,0.00
3.904,0.04,0.60,1.06,-0.55,0.76,-0.75,0.30,0.09,-0.75,0.00
3.905,0.04,0.60,1.06,-0.32,0.70,2.11,0.30,0.09,-0.75,0.00
3.989,0.04,0.60,1.06,-0.32,0.70,2.11,-0.54,0.13,-0.47,0.00
3.991,0.04,0.60,1.06,-0.14,0.67,2.68,-0.54,0.13,-0.47,0.00
3.993,0.03,0.57,1.14,-0.14,0.67,2.68,-0.54,0.13,-0.47,0.00
4.028,0.01,0.57,1.11,-0.14,0.67,2.68,-0.54,0.13,-0.47,0.00
4.039,0.01,0.57,1.11,-0.14,0.67,2.68,-0.37,0.07,-0.42,0.00
4.04,0.01,0.57,1.11,-0.51,1.01,2.17,-0.37,0.07,-0.42,0.00
4.107,-0.12,0.45,1.09,-0.51,1.01,2.17,-0.37,0.07,-0.42,0.00
4.115,-0.12,0.45,1.09,-0.51,1.01,2.17,-0.44,0.22,-0.96,0.00
4.116,-0.12,0.45,1.09,-1.09,-0.01,1.97,-0.44,0.22,-0.96,0.00
4.185,-0.12,0.45,1.09,-1.09,-0.01,1.97,-0.59,0.15,-0.62,0.00
4.187,-0.12,0.45,1.09,-0.22,-0.70,-0.22,-0.59,0.15,-0.62,0.00
4.187,-0.06,0.35,0.88,-0.22,-0.70,-0.22,-0.59,0.15,-0.62,0.00
4.225,-0.26,0.51,0.73,-0.22,-0.70,-0.22,-0.59,0.15,-0.62,0.00
4.237,-0.26,0.51,0.73,-0.22,-0.70,-0.22,0.75,0.49,-1.60,0.00
4.238,-0.26,0.51,0.73,-1.78,0.98,-2.06,0.75,0.49,-1.60,0.00
4.295,-0.12,0.42,0.75,-1.78,0.98,-2.06,0.75,0.49,-1.60,0.00
4.3,-0.12,0.42,0.75,-1.78,0.98,-2.06,0.86,0.44,-1.02,0.00
4.301,-0.12,0.42,0.75,0.55,-0.64,-1.05,0.86,0.44,-1.02,0.00
4.378,-0.05,0.44,0.66,0.55,-0.64,-1.05,0.86,0.44,-1.02,0.00
4.379,-0.05,0.44,0.66,0.55,-0.64,-1.05,0.05,-0.07,0.67,0.00
4.381,-0.05,0.44,0.66,1.00,-0.60,-1.90,0.05,-0.07,0.67,0.00
4.423,-0.02,0.50,0.61,1.00,-0.60,-1.90,0.05,-0.07,0.67,0.00
4.436,-0.02,0.50,0.61,1.00,-0.60,-1.90,0.74,-0.02,0.90,0.00
4.437,-0.02,0.50,0.61,1.30,-0.55,-2.10,0.74,-0.02,0.90,0.00
4.494,0.08,0.49,0.65,1.30,-0.55,-2.10,0.74,-0.02,0.90,0.00
4.498,0.08,0.49,0.65,1.30,-0.55,-2.10,0.53,-0.26,1.51,0.00
4.498,0.08,0.49,0.65,1.27,-0.63,-1.91,0.53,-0.26,1.51,0.00
4.576,0.02,0.67,0.81,1.27,-0.63,-1.91,0.53,-0.26,1.51,0.00
4.579,0.02,0.67,0.81,1.27,-0.63,-1.91,0.62,-0.23,0.94,0.00
4.579,0.02,0.67,0.81,0.19,0.51,0.26,0.62,-0.23,0.94,0.00
4.621,0.07,0.65,1.10,0.19,0.51,0.26,0.62,-0.23,0.94,0.00
4.634,0.07,0.65,1.10,0.19,0.51,0.26,-0.46,-0.05,0.30,0.00
4.635,0.07,0.65,1.10,0.45,0.52,2.93,-0.46,-0.05,0.30,0.00
4.708,0.07,0.65,1.10,0.45,0.52,2.93,-0.60,-0.15,0.65,0.00
4.712,0.07,0.65,1.10,0.84,0.72,1.18,-0.60,-0.15,0.65,0.00
4.713,0.16,0.61,1.01,0.84,0.72,1.18,-0.60,-0.15,0.65,0.00
4.755,0.25,0.39,1.20,0.84,0.72,1.18,-0.60,-0.15,0.65,0.00
4.795,0.25,0.39,1.20,0.84,0.72,1.18,-1.34,-0.15,1.43,0.00
4.798,0.25,0.39,1.20,1.37,-1.14,3.42,-1.34,-0.15,1.43,0.00
4.819,0.16,0.43,0.80,1.37,-1.14,3.42,-1.34,-0.15,1.43,0.00
4.831,0.16,0.43,0.80,1.37,-1.14,3.42,-0.70,-0.17,0.76,0.00
4.831,0.16,0.43,0.80,0.14,0.02,-0.90,-0.70,-0.17,0.76,0.00
4.885,0.11,0.50,0.79,0.14,0.02,-0.90,-0.70,-0.17,0.76,0.00
4.894,0.11,0.50,0.79,0.14,0.02,-0.90,0.40,-0.16,-0.60,0.00
4.895,0.11,0.50,0.79,-0.33,0.39,-0.91,0.40,-0.16,-0.60,0.00
4.951,0.04,0.50,0.76,-0.33,0.39,-0.91,0.40,-0.16,-0.60,0.00
4.971,0.04,0.50,0.76,-0.33,0.39,-0.91,0.52,-0.13,-0.77,0.00
4.977,0.04,0.50,0.76,-0.91,0.12,-1.05,0.52,-0.13,-0.77,0.00
5.017,0.05,0.40,0.71,-0.91,0.12,-1.05,0.52,-0.13,-0.77,0.00
5.028,0.05,0.40,0.71,-0.91,0.12,-1.05,0.07,0.08,-1.05,0.00
5.028,0.05,0.40,0.71,-0.30,-1.06,-1.46,0.07,0.08,-1.05,0.00
5.087,0.10,0.42,0.71,-0.30,-1.06,-1.46,0.07,0.08,-1.05,0.00
5.092,0.10,0.42,0.71,-0.30,-1.06,-1.46,-0.04,-0.09,-0.19,0.00
5.093,0.10,0.42,0.71,0.21,-0.85,-1.47,-0.04,-0.09,-0.19,0.00
5.149,0.12,0.49,0.75,0.21,-0.85,-1.47,-0.04,-0.09,-0.19,0.00
5.205,0.12,0.49,0.75,0.21,-0.85,-1.47,0.36,-0.21,0.17,0.00
5.209,0.12,0.49,0.75,0.17,-0.30,-0.91,0.36,-0.21,0.17,0.00
5.215,0.06,0.61,0.95,0.17,-0.30,-0.91,0.36,-0.21,0.17,0.00
5.226,0.06,0.61,0.95,0.17,-0.30,-0.91,0.07,-0.05,-0.10,0.00
5.227,0.06,0.61,0.95,-0.45,0.80,1.06,0.07,-0.05,-0.10,0.00
5.281,0.08,0.57,1.08,-0.45,0.80,1.06,0.07,-0.05,-0.10,0.00
5.29,0.08,0.57,1.08,-0.45,0.80,1.06,-0.35,0.12,-0.41,0.00
5.291,0.08,0.57,1.08,0.04,0.50,2.18,-0.35,0.12,-0.41,0.00
5.348,-0.04,0.68,0.92,0.04,0.50,2.18,-0.35,0.12,-0.41,0.00
5.39,-0.04,0.68,0.92,0.04,0.50,2.18,0.29,0.15,-0.71,0.00
5.393,-0.04,0.68,0.92,-0.92,1.56,0.64,0.29,0.15,-0.71,0.00
5.417,-0.05,0.42,1.06,-0.92,1.56,0.64,0.29,0.15,-0.71,0.00
5.426,-0.05,0.42,1.06,-0.92,1.56,0.64,-0.13,0.39,-1.68,0.00
5.427,-0.05,0.42,1.06,-0.24,-0.83,1.90,-0.13,0.39,-1.68,0.00
5.493,-0.11,0.40,0.72,-0.24,-0.83,1.90,-0.13,0.39,-1.68,0.00
5.495,-0.11,0.40,0.72,-0.24,-0.83,1.90,-0.72,0.11,-0.39,0.00
5.496,-0.11,0.40,0.72,-0.72,-0.61,-1.65,-0.72,0.11,-0.39,0.00
5.545,-0.18,0.49,0.76,-0.72,-0.61,-1.65,-0.72,0.11,-0.39,0.00
5.583,-0.18,0.49,0.76,-0.72,-0.61,-1.65,0.36,0.32,-1.09,0.00
5.586,-0.18,0.49,0.76,-0.92,0.19,-1.11,0.36,0.32,-1.09,0.00
5.611,-0.06,0.39,0.72,-0.92,0.19,-1.11,0.36,0.32,-1.09,0.00
5.622,-0.06,0.39,0.72,-0.92,0.19,-1.11,0.40,0.20,-0.51,0.00
5.623,-0.06,0.39,0.72,0.55,-1.08,-1.33,0.40,0.20,-0.51,0.00
5.677,-0.03,0.42,0.87,0.55,-1.08,-1.33,0.40,0.20,-0.51,0.00
5.686,-0.03,0.42,0.87,0.55,-1.08,-1.33,-0.67,-0.22,0.83,0.00
5.687,-0.03,0.42,0.87,0.46,-0.45,-0.12,-0.67,-0.22,0.83,0.00
5.743,-0.08,0.51,0.57,0.46,-0.45,-0.12,-0.67,-0.22,0.83,0.00
5.752,-0.08,0.51,0.57,0.46,-0.45,-0.12,0.65,0.05,0.25,0.00
5.753,-0.08,0.51,0.57,-0.17,0.30,-3.01,0.65,0.05,0.25,0.00
5.809,-0.04,0.51,0.70,-0.17,0.30,-3.01,0.65,0.05,0.25,0.00
5.819,-0.04,0.51,0.70,-0.17,0.30,-3.01,1.01,0.11,0.25,0.00
5.82,-0.04,0.51,0.70,0.32,-0.43,-1.27,1.01,0.11,0.25,0.00
5.906,-0.04,0.51,0.70,0.32,-0.43,-1.27,0.23,-0.02,0.52,0.00
5.908,-0.04,0.51,0.70,0.14,0.20,0.90,0.23,-0.02,0.52,0.00
5.909,-0.03,0.58,1.06,0.14,0.20,0.90,0.23,-0.02,0.52,0.00
5.941,0.08,0.58,1.09,0.14,0.20,0.90,0.23,-0.02,0.52,0.00
5.95,0.08,0.58,1.09,0.14,0.20,0.90,-0.67,-0.14,0.97,0.00
5.951,0.08,0.58,1.09,0.94,0.46,2.42,-0.67,-0.14,0.97,0.00
6.007,0.18,0.50,1.11,0.94,0.46,2.42,-0.67,-0.14,0.97,0.00
6.022,0.18,0.50,1.11,0.94,0.46,2.42,-0.68,-0.21,1.45,0.00
6.024,0.18,0.50,1.11,1.27,0.11,2.36,-0.68,-0.21,1.45,0.00
6.077,-0.02,0.49,0.98,1.27,0.11,2.36,-0.68,-0.21,1.45,0.00
6.083,-0.02,0.49,0.98,1.27,0.11,2.36,-0.52,0.06,0.08,0.00
6.084,-0.02,0.49,0.98,-0.83,0.36,0.83,-0.52,0.06,0.08,0.00
6.139,0.14,0.41,0.85,-0.83,0.36,0.83,-0.52,0.06,0.08,0.00
6.148,0.14,0.41,0.85,-0.83,0.36,0.83,-0.10,-0.11,0.41,0.00
6.149,0.14,0.41,0.85,0.77,-0.34,-0.43,-0.10,-0.11,0.41,0.00
6.205,0.06,0.42,0.73,0.77,-0.34,-0.43,-0.10,-0.11,0.41,0.00
6.215,0.06,0.42,0.73,0.77,-0.34,-0.43,0.29,-0.10,0.08,0.00
6.216,0.06,0.42,0.73,-0.21,-0.29,-1.59,0.29,-0.10,0.08,0.00
6.28,0.01,0.40,0.72,-0.21,-0.29,-1.59,0.29,-0.10,0.08,0.00
6.283,0.01,0.40,0.72,-0.21,-0.29,-1.59,0.26,0.00,-0.36,0.00
6.284,0.01,0.40,0.72,-0.63,-0.64,-1.56,0.26,0.00,-0.36,0.00
6.337,0.10,0.43,0.77,-0.63,-0.64,-1.56,0.26,0.00,-0.36,0.00
6.347,0.10,0.43,0.77,-0.63,-0.64,-1.56,0.17,-0.02,-0.34,0.00
6.348,0.10,0.43,0.77,0.09,-0.48,-1.32,0.17,-0.02,-0.34,0.00
6.419,0.16,0.42,0.77,0.09,-0.48,-1.32,0.17,-0.02,-0.34,0.00
6.425,0.16,0.42,0.77,0.09,-0.48,-1.32,0.07,-0.22,0.93,0.00
6.426,0.16,0.42,0.77,0.55,-0.59,-1.02,0.07,-0.22,0.93,0.00
6.481,0.06,0.47,0.83,0.55,-0.59,-1.02,0.07,-0.22,0.93,0.00
6.484,0.06,0.47,0.83,0.55,-0.59,-1.02,-0.04,-0.07,0.48,0.00
6.484,0.06,0.47,0.83,-0.64,-0.03,-0.46,-0.04,-0.07,0.48,0.00
6.535,-0.07,0.47,0.92,-0.64,-0.03,-0.46,-0.04,-0.07,0.48,0.00
6.544,-0.07,0.47,0.92,-0.64,-0.03,-0.46,-0.24,0.27,-1.66,0.00
6.544,-0.07,0.47,0.92,-1.11,-0.19,0.61,-0.24,0.27,-1.66,0.00
6.604,0.04,0.47,0.90,-1.11,-0.19,0.61,-0.24,0.27,-1.66,0.00
6.614,0.04,0.47,0.90,-1.11,-0.19,0.61,-0.15,0.09,-0.87,0.00
6.614,0.04,0.47,0.90,0.26,0.11,0.09,-0.15,0.09,-0.87,0.00
6.667,-0.12,0.43,1.12,0.26,0.11,0.09,-0.15,0.09,-0.87,0.00
6.677,-0.12,0.43,1.12,0.26,0.11,0.09,-0.55,0.08,-1.03,0.00
6.684,-0.12,0.43,1.12,-1.05,-0.07,2.14,-0.55,0.08,-1.03,0.00
6.733,-0.04,0.41,0.67,-1.05,-0.07,2.14,-0.55,0.08,-1.03,0.00
6.742,-0.04,0.41,0.67,-1.05,-0.07,2.14,0.06,0.05,-0.91,0.00
6.743,-0.04,0.41,0.67,0.05,-0.19,-2.29,0.06,0.05,-0.91,0.00
6.803,-0.25,0.49,0.82,0.05,-0.19,-2.29,0.06,0.05,-0.91,0.00
6.811,-0.25,0.49,0.82,0.05,-0.19,-2.29,0.68,0.16,-1.53,0.00
6.812,-0.25,0.49,0.82,-1.61,0.30,-0.63,0.68,0.16,-1.53,0.00
6.865,-0.11,0.39,0.96,-1.61,0.30,-0.63,0.68,0.16,-1.53,0.00
6.907,-0.11,0.39,0.96,-1.61,0.30,-0.63,-0.19,-0.05,-0.97,0.00
6.91,-0.11,0.39,0.96,0.25,-0.69,0.81,-0.19,-0.05,-0.97,0.00
6.934,-0.11,0.46,0.83,0.25,-0.69,0.81,-0.19,-0.05,-0.97,0.00
6.941,-0.11,0.46,0.83,0.25,-0.69,0.81,-0.10,-0.04,0.08,0.00
6.943,-0.11,0.46,0.83,0.21,0.22,-0.59,-0.10,-0.04,0.08,0.00
7.003,0.04,0.46,0.82,0.21,0.22,-0.59,-0.10,-0.04,0.08,0.00
7.008,0.04,0.46,0.82,0.21,0.22,-0.59,0.37,0.06,1.13,0.00
7.009,0.04,0.46,0.82,1.46,-0.11,-0.52,0.37,0.06,1.13,0.00
7.105,0.06,0.44,1.10,1.46,-0.11,-0.52,0.37,0.06,1.13,0.00
7.108,0.06,0.44,1.10,1.46,-0.11,-0.52,-0.42,-0.08,2.22,0.00
7.109,0.06,0.44,1.10,0.91,-0.31,2.08,-0.42,-0.08,2.22,0.00
7.129,0.03,0.43,0.97,0.91,-0.31,2.08,-0.42,-0.08,2.22,0.00
7.143,0.03,0.43,0.97,0.91,-0.31,2.08,-0.64,0.04,1.22,0.00
7.144,0.03,0.43,0.97,0.23,0.03,0.66,-0.64,0.04,1.22,0.00
7.202,0.07,0.41,0.88,0.23,0.03,0.66,-0.64,0.04,1.22,0.00
7.206,0.07,0.41,0.88,0.23,0.03,0.66,-0.21,0.20,1.39,0.00
7.206,0.07,0.41,0.88,0.54,0.07,0.07,-0.21,0.20,1.39,0.00
7.262,0.03,0.38,1.00,0.54,0.07,0.07,-0.21,0.20,1.39,0.00
7.27,0.03,0.38,1.00,0.54,0.07,0.07,-0.37,0.36,1.12,0.00
7.271,0.03,0.38,1.00,-0.16,-0.06,0.74,-0.37,0.36,1.12,0.00
7.332,0.02,0.41,0.89,-0.16,-0.06,0.74,-0.37,0.36,1.12,0.00
7.336,0.02,0.41,0.89,-0.16,-0.06,0.74,0.15,0.38,0.69,0.00
7.337,0.02,0.41,0.89,-0.18,0.24,-0.31,0.15,0.38,0.69,0.00
7.419,-0.04,0.46,0.78,-0.18,0.24,-0.31,0.15,0.38,0.69,0.00
7.424,-0.04,0.46,0.78,-0.18,0.24,-0.31,0.18,0.43,0.36,0.00
7.424,-0.04,0.46,0.78,-0.60,0.57,-1.39,0.18,0.43,0.36,0.00
7.46,-0.05,0.52,0.81,-0.60,0.57,-1.39,0.18,0.43,0.36,0.00
7.469,-0.05,0.52,0.81,-0.60,0.57,-1.39,0.84,0.26,-0.32,0.00
7.47,-0.05,0.52,0.81,-0.38,0.67,-0.83,0.84,0.26,-0.32,0.00
7.535,0.00,0.54,0.92,-0.38,0.67,-0.83,0.84,0.26,-0.32,0.00
7.546,0.00,0.54,0.92,-0.38,0.67,-0.83,0.58,0.43,0.61,0.00
7.547,0.00,0.54,0.92,0.18,0.49,0.42,0.58,0.43,0.61,0.00
7.624,0.02,0.52,0.99,0.18,0.49,0.42,0.58,0.43,0.61,0.00
7.636,0.02,0.52,0.99,0.18,0.49,0.42,-0.00,0.70,1.49,0.00
7.637,0.02,0.52,0.99,0.09,0.45,1.00,-0.00,0.70,1.49,0.00
7.657,-0.03,0.53,0.96,0.09,0.45,1.00,-0.00,0.70,1.49,0.00
7.666,-0.03,0.53,0.96,0.09,0.45,1.00,-0.08,0.67,1.06,0.00
7.666,-0.03,0.53,0.96,-0.48,0.27,1.17,-0.08,0.67,1.06,0.00
7.723,0.01,0.50,0.81,-0.48,0.27,1.17,-0.08,0.67,1.06,0.00
7.732,0.01,0.50,0.81,-0.48,0.27,1.17,0.06,0.46,0.64,0.00
7.732,0.01,0.50,0.81,0.32,0.10,-0.59,0.06,0.46,0.64,0.00
7.793,-0.01,0.41,1.00,0.32,0.10,-0.59,0.06,0.46,0.64,0.00
7.826,-0.01,0.41,1.00,0.32,0.10,-0.59,-0.27,0.62,1.37,0.00
7.827,-0.01,0.41,1.00,-0.24,-0.84,1.81,-0.27,0.62,1.37,0.00
7.857,-0.07,0.37,0.98,-0.24,-0.84,1.81,-0.27,0.62,1.37,0.00
7.864,-0.07,0.37,0.98,-0.24,-0.84,1.81,-0.97,1.11,1.78,0.00
7.864,-0.07,0.37,0.98,-0.14,-0.42,0.24,-0.97,1.11,1.78,0.00
7.936,-0.15,0.44,0.88,-0.14,-0.42,0.24,-0.97,1.11,1.78,0.00
7.942,-0.15,0.44,0.88,-0.14,-0.42,0.24,-0.39,0.70,1.19,0.00
7.942,-0.15,0.44,0.88,-0.31,0.02,-0.42,-0.39,0.70,1.19,0.00
7.99,-0.25,0.51,0.77,-0.31,0.02,-0.42,-0.39,0.70,1.19,0.00
7.998,-0.25,0.51,0.77,-0.31,0.02,-0.42,1.15,-0.50,-3.94,0.00
8.0,-0.25,0.51,0.77,-1.31,0.82,-1.24,1.15,-0.50,-3.94,0.00
8.053,-0.16,0.45,0.64,-1.31,0.82,-1.24,1.15,-0.50,-3.94,0.00
8.062,-0.16,0.45,0.64,-1.31,0.82,-1.24,1.59,-0.69,-3.12,0.00
8.062,-0.16,0.45,0.64,0.10,-0.34,-2.15,1.59,-0.69,-3.12,0.00
8.125,-0.06,0.42,0.61,0.10,-0.34,-2.15,1.59,-0.69,-3.12,0.00
8.129,-0.06,0.42,0.61,0.10,-0.34,-2.15,0.48,-0.01,0.19,0.00
8.131,-0.06,0.42,0.61,1.11,-0.99,-2.25,0.48,-0.01,0.19,0.00
8.208,-0.04,0.49,0.69,1.11,-0.99,-2.25,0.48,-0.01,0.19,0.00
8.22,-0.04,0.49,0.69,1.11,-0.99,-2.25,0.14,0.09,1.48,0.00
8.221,-0.04,0.49,0.69,0.57,-0.18,-1.39,0.14,0.09,1.48,0.00
8.26,-0.05,0.55,0.92,0.57,-0.18,-1.39,0.14,0.09,1.48,0.00
8.264,-0.05,0.55,0.92,0.57,-0.18,-1.39,0.25,-0.08,0.80,0.00
8.264,-0.05,0.55,0.92,0.37,-0.10,1.00,0.25,-0.08,0.80,0.00
8.323,-0.12,0.56,1.56,0.37,-0.10,1.00,0.25,-0.08,0.80,0.00
8.326,-0.12,0.56,1.56,0.37,-0.10,1.00,-1.40,0.87,2.11,0.00
8.327,-0.12,0.56,1.56,-0.60,0.53,6.78,-1.40,0.87,2.11,0.00
8.417,0.14,0.61,1.01,-0.60,0.53,6.78,-1.40,0.87,2.11,0.00
8.419,0.14,0.61,1.01,-0.60,0.53,6.78,-1.40,0.94,2.92,0.00
8.419,0.14,0.61,1.01,1.67,1.72,1.03,-1.40,0.94,2.92,0.00
8.449,0.05,0.71,1.15,1.67,1.72,1.03,-1.40,0.94,2.92,0.00
8.458,0.05,0.71,1.15,1.67,1.72,1.03,0.60,-0.48,0.80,0.00
8.458,0.05,0.71,1.15,0.13,2.32,2.66,0.60,-0.48,0.80,0.00
8.524,-0.09,0.52,1.13,0.13,2.32,2.66,0.60,-0.48,0.80,0.00
8.53,-0.09,0.52,1.13,0.13,2.32,2.66,-0.17,0.52,0.02,0.00
8.535,-0.09,0.52,1.13,-0.48,0.24,-0.73,-0.17,0.52,0.02,0.00
8.582,-0.00,0.39,0.88,-0.48,0.24,-0.73,-0.17,0.52,0.02,0.00
8.614,-0.00,0.39,0.88,-0.48,0.24,-0.73,0.38,0.11,-0.44,0.00
8.616,-0.00,0.39,0.88,0.13,-0.85,-0.02,0.38,0.11,-0.44,0.00
8.647,0.06,0.45,0.61,0.13,-0.85,-0.02,0.38,0.11,-0.44,0.00
8.656,0.06,0.45,0.61,0.13,-0.85,-0.02,0.16,0.01,0.84,0.00
8.656,0.06,0.45,0.61,0.52,-0.26,-2.68,0.16,0.01,0.84,0.00
8.713,0.01,0.57,0.59,0.52,-0.26,-2.68,0.16,0.01,0.84,0.00
8.722,0.01,0.57,0.59,0.52,-0.26,-2.68,1.39,-0.79,-1.02,0.00
8.722,0.01,0.57,0.59,-0.08,0.19,-2.42,1.39,-0.79,-1.02,0.00
8.779,0.08,0.56,0.82,-0.08,0.19,-2.42,1.39,-0.79,-1.02,0.00
8.861,0.08,0.56,0.82,-0.08,0.19,-2.42,0.66,-0.33,0.03,0.00
8.863,0.08,0.56,0.82,0.44,-0.35,1.23,0.66,-0.33,0.03,0.00
8.864,0.08,0.56,0.82,0.44,-0.35,1.23,-0.42,0.40,0.49,0.00
8.864,0.08,0.56,0.82,-0.69,0.47,1.82,-0.42,0.40,0.49,0.00
8.865,-0.09,0.66,0.96,-0.69,0.47,1.82,-0.42,0.40,0.49,0.00
8.911,-0.04,0.65,0.95,-0.69,0.47,1.82,-0.42,0.40,0.49,0.00
8.92,-0.04,0.65,0.95,-0.69,0.47,1.82,0.02,0.19,-0.54,0.00
8.921,-0.04,0.65,0.95,-0.30,0.78,1.20,0.02,0.19,-0.54,0.00
8.977,-0.08,0.65,1.04,-0.30,0.78,1.20,0.02,0.19,-0.54,0.00
8.988,-0.08,0.65,1.04,-0.30,0.78,1.20,-0.27,0.31,-0.17,0.00
8.989,-0.08,0.65,1.04,0.09,0.27,1.11,-0.27,0.31,-0.17,0.00
9.045,-0.04,0.46,0.97,0.09,0.27,1.11,-0.27,0.31,-0.17,0.00
9.052,-0.04,0.46,0.97,0.09,0.27,1.11,-0.70,0.49,0.50,0.00
9.053,-0.04,0.46,0.97,0.02,-0.64,1.13,-0.70,0.49,0.50,0.00
9.11,-0.02,0.46,0.81,0.02,-0.64,1.13,-0.70,0.49,0.50,0.00
9.118,-0.02,0.46,0.81,0.02,-0.64,1.13,-0.26,0.09,0.59,0.00
9.119,-0.02,0.46,0.81,0.09,-0.33,-0.57,-0.26,0.09,0.59,0.00
9.212,-0.23,0.48,0.86,0.09,-0.33,-0.57,-0.26,0.09,0.59,0.00
9.215,-0.23,0.48,0.86,0.09,-0.33,-0.57,-0.07,0.41,-1.31,0.00
9.215,-0.23,0.48,0.86,-0.20,-0.92,-1.54,-0.07,0.41,-1.31,0.00
9.247,-0.16,0.37,0.72,-0.20,-0.92,-1.54,-0.07,0.41,-1.31,0.00
9.25,-0.16,0.37,0.72,-0.20,-0.92,-1.54,-0.24,0.18,-0.11,0.00
9.252,-0.16,0.37,0.72,0.47,-1.34,-1.61,-0.24,0.18,-0.11,0.00
9.313,-0.33,0.45,0.60,0.47,-1.34,-1.61,-0.24,0.18,-0.11,0.00
9.317,-0.33,0.45,0.60,0.47,-1.34,-1.61,0.91,-0.16,-3.08,0.00
9.318,-0.33,0.45,0.60,-1.46,-0.35,-2.46,0.91,-0.16,-3.08,0.00
9.385,-0.15,0.40,0.68,-1.46,-0.35,-2.46,0.91,-0.16,-3.08,0.00
9.386,-0.15,0.40,0.68,-1.46,-0.35,-2.46,0.51,-0.19,-1.45,0.00
9.387,-0.15,0.40,0.68,1.10,-0.75,-1.64,0.51,-0.19,-1.45,0.00
9.439,-0.17,0.51,0.78,1.10,-0.75,-1.64,0.51,-0.19,-1.45,0.00
9.448,-0.17,0.51,0.78,1.10,-0.75,-1.64,0.13,-0.10,0.58,0.00
9.449,-0.17,0.51,0.78,0.72,-0.24,0.44,0.13,-0.10,0.58,0.00
9.505,-0.04,0.50,0.96,0.72,-0.24,0.44,0.13,-0.10,0.58,0.00
9.514,-0.04,0.50,0.96,0.72,-0.24,0.44,-0.66,0.18,2.18,0.00
9.514,-0.04,0.50,0.96,1.07,-0.11,1.05,-0.66,0.18,2.18,0.00
9.571,-0.04,0.53,0.94,1.07,-0.11,1.05,-0.66,0.18,2.18,0.00
9.585,-0.04,0.53,0.94,1.07,-0.11,1.05,-0.65,0.17,1.97,0.00
9.586,-0.04,0.53,0.94,0.52,0.40,0.66,-0.65,0.17,1.97,0.00
9.665,0.08,0.71,1.11,0.52,0.40,0.66,-0.65,0.17,1.97,0.00
9.667,0.08,0.71,1.11,0.52,0.40,0.66,0.44,-0.46,0.47,0.00
9.668,0.08,0.71,1.11,0.84,1.92,1.87,0.44,-0.46,0.47,0.00
9.706,0.00,0.67,1.07,0.84,1.92,1.87,0.44,-0.46,0.47,0.00
9.712,0.00,0.67,1.07,0.84,1.92,1.87,0.33,-0.37,0.63,0.00
9.713,0.00,0.67,1.07,0.04,1.39,2.16,0.33,-0.37,0.63,0.00
9.769,-0.03,0.55,1.04,0.04,1.39,2.16,0.33,-0.37,0.63,0.00
9.779,-0.03,0.55,1.04,0.04,1.39,2.16,-0.54,0.49,0.62,0.00
9.78,-0.03,0.55,1.04,-0.21,0.39,1.76,-0.54,0.49,0.62,0.00
9.835,-0.03,0.50,0.76,-0.21,0.39,1.76,-0.54,0.49,0.62,0.00
9.844,-0.03,0.50,0.76,-0.21,0.39,1.76,0.15,0.07,-0.14,0.00
9.844,-0.03,0.50,0.76,-0.12,-0.08,-1.01,0.15,0.07,-0.14,0.00
9.903,-0.00,0.41,0.71,-0.12,-0.08,-1.01,0.15,0.07,-0.14,0.00
9.91,-0.00,0.41,0.71,-0.12,-0.08,-1.01,0.03,0.11,0.17,0.00
9.911,-0.00,0.41,0.71,-0.08,-0.93,-1.82,0.03,0.11,0.17,0.00
9.967,-0.05,0.48,0.67,-0.08,-0.93,-1.82,0.03,0.11,0.17,0.00
9.977,-0.05,0.48,0.67,-0.08,-0.93,-1.82,0.37,-0.04,-0.43,0.00
9.978,-0.05,0.48,0.67,-0.27,-0.49,-1.78,0.37,-0.04,-0.43,0.00
10.045,-0.06,0.54,0.93,-0.27,-0.49,-1.78,0.37,-0.04,-0.43,0.00
10.049,-0.06,0.54,0.93,-0.27,-0.49,-1.78,0.03,0.16,-0.18,0.00
10.059,-0.06,0.54,0.93,-0.15,0.09,0.84,0.03,0.16,-0.18,0.00
10.099,-0.15,0.58,1.02,-0.15,0.09,0.84,0.03,0.16,-0.18,0.00
10.108,-0.15,0.58,1.02,-0.15,0.09,0.84,-0.26,0.41,-0.14,0.00
10.108,-0.15,0.58,1.02,-0.77,0.58,1.63,-0.26,0.41,-0.14,0.00
10.178,-0.03,0.50,0.89,-0.77,0.58,1.63,-0.26,0.41,-0.14,0.00
10.18,-0.03,0.50,0.89,-0.77,0.58,1.63,-0.68,0.39,0.67,0.00
10.182,-0.03,0.50,0.89,0.45,-0.09,1.78,-0.68,0.39,0.67,0.00
10.231,-0.11,0.55,0.69,0.45,-0.09,1.78,-0.68,0.39,0.67,0.00
10.24,-0.11,0.55,0.69,0.45,-0.09,1.78,0.95,-0.58,-0.83,0.00
10.24,-0.11,0.55,0.69,-0.45,0.34,-1.58,0.95,-0.58,-0.83,0.00
10.298,-0.14,0.37,1.00,-0.45,0.34,-1.58,0.95,-0.58,-0.83,0.00
10.311,-0.14,0.37,1.00,-0.45,0.34,-1.58,-1.08,0.75,0.25,0.00
10.317,-0.14,0.37,1.00,-0.45,-1.08,1.24,-1.08,0.75,0.25,0.00
10.375,-0.14,0.39,0.67,-0.45,-1.08,1.24,-1.08,0.75,0.25,0.00
10.378,-0.14,0.39,0.67,-0.45,-1.08,1.24,-0.35,0.26,-0.19,0.00
10.378,-0.14,0.39,0.67,-0.17,-0.65,-2.06,-0.35,0.26,-0.19,0.00
10.429,-0.27,0.51,0.68,-0.17,-0.65,-2.06,-0.35,0.26,-0.19,0.00
10.438,-0.27,0.51,0.68,-0.17,-0.65,-2.06,1.37,-0.27,-2.67,0.00
10.439,-0.27,0.51,0.68,-0.88,0.11,-1.63,1.37,-0.27,-2.67,0.00
10.495,-0.09,0.45,0.75,-0.88,0.11,-1.63,1.37,-0.27,-2.67,0.00
10.507,-0.09,0.45,0.75,-0.88,0.11,-1.63,0.15,-0.12,-0.03,0.00
10.509,-0.09,0.45,0.75,1.16,-0.62,-0.83,0.15,-0.12,-0.03,0.00
10.561,-0.12,0.56,0.77,1.16,-0.62,-0.83,0.15,-0.12,-0.03,0.00
10.572,-0.12,0.56,0.77,1.16,-0.62,-0.83,0.43,-0.36,0.46,0.00
10.572,-0.12,0.56,0.77,0.44,0.22,-0.57,0.43,-0.36,0.46,0.00
10.627,-0.02,0.65,0.91,0.44,0.22,-0.57,0.43,-0.36,0.46,0.00
10.636,-0.02,0.65,0.91,0.44,0.22,-0.57,0.38,-0.42,0.75,0.00
10.637,-0.02,0.65,0.91,0.97,0.79,1.01,0.38,-0.42,0.75,0.00
10.745,-0.02,0.65,0.91,0.97,0.79,1.01,-0.25,-0.18,1.24,0.00
10.746,-0.02,0.65,0.91,0.55,0.69,1.91,-0.25,-0.18,1.24,0.00
10.747,-0.08,0.66,1.02,0.55,0.69,1.91,-0.25,-0.18,1.24,0.00
10.759,-0.30,0.76,0.87,0.55,0.69,1.91,-0.25,-0.18,1.24,0.00
10.769,-0.30,0.76,0.87,0.55,0.69,1.91,0.63,0.03,-1.49,0.00
10.771,-0.30,0.76,0.87,-1.74,1.75,0.61,0.63,0.03,-1.49,0.00
10.825,-0.19,0.64,0.91,-1.74,1.75,0.61,0.63,0.03,-1.49,0.00
10.834,-0.19,0.64,0.91,-1.74,1.75,0.61,0.14,0.01,-0.65,0.00
10.835,-0.19,0.64,0.91,-0.11,-0.09,0.93,0.14,0.01,-0.65,0.00
10.891,-0.00,0.50,0.86,-0.11,-0.09,0.93,0.14,0.01,-0.65,0.00
10.9,-0.00,0.50,0.86,-0.11,-0.09,0.93,-0.50,-0.03,0.30,0.00
10.901,-0.00,0.50,0.86,1.49,-0.72,0.59,-0.50,-0.03,0.30,0.00
10.957,0.07,0.53,0.88,1.49,-0.72,0.59,-0.50,-0.03,0.30,0.00
10.967,0.07,0.53,0.88,1.49,-0.72,0.59,-0.66,-0.50,1.58,0.00
10.969,0.07,0.53,0.88,1.37,-0.17,0.43,-0.66,-0.50,1.58,0.00
11.023,-0.10,0.60,0.83,1.37,-0.17,0.43,-0.66,-0.50,1.58,0.00
11.032,-0.10,0.60,0.83,1.37,-0.17,0.43,0.14,-0.34,-0.21,0.00
11.033,-0.10,0.60,0.83,-0.56,0.49,-0.08,0.14,-0.34,-0.21,0.00
11.089,0.02,0.51,0.84,-0.56,0.49,-0.08,0.14,-0.34,-0.21,0.00
11.098,0.02,0.51,0.84,-0.56,0.49,-0.08,-0.17,-0.25,0.27,0.00
11.098,0.02,0.51,0.84,0.43,-0.35,0.03,-0.17,-0.25,0.27,0.00
11.185,0.05,0.51,0.88,0.43,-0.35,0.03,-0.17,-0.25,0.27,0.00
11.188,0.05,0.51,0.88,0.43,-0.35,0.03,-0.32,-0.17,0.49,0.00
11.188,0.05,0.51,0.88,0.50,0.01,0.44,-0.32,-0.17,0.49,0.00
11.224,0.04,0.53,0.84,0.50,0.01,0.44,-0.32,-0.17,0.49,0.00
11.23,0.04,0.53,0.84,0.50,0.01,0.44,-0.14,-0.20,0.36,0.00
11.231,0.04,0.53,0.84,0.24,0.05,-0.15,-0.14,-0.20,0.36,0.00
11.287,-0.12,0.43,0.88,0.24,0.05,-0.15,-0.14,-0.20,0.36,0.00
11.296,-0.12,0.43,0.88,0.24,0.05,-0.15,-0.14,0.23,-0.50,0.00
11.297,-0.12,0.43,0.88,-1.19,-0.91,0.31,-0.14,0.23,-0.50,0.00
11.353,-0.22,0.63,0.57,-1.19,-0.91,0.31,-0.14,0.23,-0.50,0.00
11.364,-0.22,0.63,0.57,-1.19,-0.91,0.31,0.13,0.55,-1.57,0.00
11.365,-0.22,0.63,0.57,-1.29,1.12,-2.71,0.13,0.55,-1.57,0.00
11.423,-0.21,0.54,0.98,-1.29,1.12,-2.71,0.13,0.55,-1.57,0.00
11.428,-0.21,0.54,0.98,-1.29,1.12,-2.71,1.03,-0.05,-1.35,0.00
11.429,-0.21,0.54,0.98,-0.75,-0.32,1.66,1.03,-0.05,-1.35,0.00
11.485,-0.34,0.58,0.93,-0.75,-0.32,1.66,1.03,-0.05,-1.35,0.00
11.494,-0.34,0.58,0.93,-0.75,-0.32,1.66,-0.28,0.45,-1.15,0.00
11.495,-0.34,0.58,0.93,-1.07,0.26,1.10,-0.28,0.45,-1.15,0.00
11.572,-0.21,0.52,0.68,-1.07,0.26,1.10,-0.28,0.45,-1.15,0.00
11.575,-0.21,0.52,0.68,-1.07,0.26,1.10,-0.04,0.06,-0.57,0.00
11.576,-0.21,0.52,0.68,-0.63,0.40,-1.49,-0.04,0.06,-0.57,0.00
11.617,-0.34,0.57,0.75,-0.63,0.40,-1.49,-0.04,0.06,-0.57,0.00
11.63,-0.34,0.57,0.75,-0.63,0.40,-1.49,0.97,-0.01,-1.36,0.00
11.631,-0.34,0.57,0.75,-0.73,0.24,-0.51,0.97,-0.01,-1.36,0.00
11.683,-0.15,0.40,0.71,-0.73,0.24,-0.51,0.97,-0.01,-1.36,0.00
11.692,-0.15,0.40,0.71,-0.73,0.24,-0.51,-0.44,-0.16,0.27,0.00
11.693,-0.15,0.40,0.71,1.16,-1.30,-0.95,-0.44,-0.16,0.27,0.00
11.749,-0.12,0.46,0.70,1.16,-1.30,-0.95,-0.44,-0.16,0.27,0.00
11.765,-0.12,0.46,0.70,1.16,-1.30,-0.95,-0.18,-0.18,0.04,0.00
11.766,-0.12,0.46,0.70,1.24,-0.62,-1.16,-0.18,-0.18,0.04,0.00
11.818,-0.02,0.45,1.00,1.24,-0.62,-1.16,-0.18,-0.18,0.04,0.00
11.824,-0.02,0.45,1.00,1.24,-0.62,-1.16,-0.74,-0.76,1.87,0.00
11.829,-0.02,0.45,1.00,1.37,-0.65,1.52,-0.74,-0.76,1.87,0.00
11.881,-0.15,0.53,1.01,1.37,-0.65,1.52,-0.74,-0.76,1.87,0.00
11.89,-0.15,0.53,1.01,1.37,-0.65,1.52,-0.59,-0.19,0.33,0.00
11.89,-0.15,0.53,1.01,-0.40,0.57,1.31,-0.59,-0.19,0.33,0.00
11.947,-0.09,0.53,0.97,-0.40,0.57,1.31,-0.59,-0.19,0.33,0.00
11.958,-0.09,0.53,0.97,-0.40,0.57,1.31,-0.06,-0.38,-0.02,0.00
11.959,-0.09,0.53,0.97,0.36,0.38,1.37,-0.06,-0.38,-0.02,0.00
12.013,-0.01,0.36,1.14,0.36,0.38,1.37,-0.06,-0.38,-0.02,0.00
12.026,-0.01,0.36,1.14,0.36,0.38,1.37,-0.99,-0.39,0.70,0.00
12.026,-0.01,0.36,1.14,0.41,-0.72,2.32,-0.99,-0.39,0.70,0.00
12.079,-0.19,0.49,0.77,0.41,-0.72,2.32,-0.99,-0.39,0.70,0.00
12.088,-0.19,0.49,0.77,0.41,-0.72,2.32,0.27,-0.03,-1.27,0.00
12.088,-0.19,0.49,0.77,-1.22,0.75,-1.32,0.27,-0.03,-1.27,0.00
12.145,-0.11,0.57,0.84,-1.22,0.75,-1.32,0.27,-0.03,-1.27,0.00
12.156,-0.11,0.57,0.84,-1.22,0.75,-1.32,1.13,-0.25,-1.44,0.00
12.157,-0.11,0.57,0.84,-0.03,1.25,1.34,1.13,-0.25,-1.44,0.00
12.215,-0.16,0.62,0.97,-0.03,1.25,1.34,1.13,-0.25,-1.44,0.00
12.22,-0.16,0.62,0.97,-0.03,1.25,1.34,0.59,-0.18,-1.00,0.00
12.221,-0.16,0.62,0.97,-0.32,1.14,1.11,0.59,-0.18,-1.00,0.00
12.277,-0.07,0.41,0.70,-0.32,1.14,1.11,0.59,-0.18,-1.00,0.00
12.286,-0.07,0.41,0.70,-0.32,1.14,1.11,0.19,-0.35,-0.08,0.00
12.287,-0.07,0.41,0.70,0.48,-1.13,-1.42,0.19,-0.35,-0.08,0.00
12.361,-0.20,0.40,0.51,0.48,-1.13,-1.42,0.19,-0.35,-0.08,0.00
12.364,-0.20,0.40,0.51,0.48,-1.13,-1.42,0.50,0.03,-1.10,0.00
12.364,-0.20,0.40,0.51,-0.48,-1.50,-2.44,0.50,0.03,-1.10,0.00
12.409,-0.15,0.45,0.60,-0.48,-1.50,-2.44,0.50,0.03,-1.10,0.00
12.42,-0.15,0.45,0.60,-0.48,-1.50,-2.44,0.38,0.02,-0.96,0.00
12.423,-0.15,0.45,0.60,0.41,-0.91,-2.11,0.38,0.02,-0.96,0.00
12.477,-0.18,0.53,0.83,0.41,-0.91,-2.11,0.38,0.02,-0.96,0.00
12.484,-0.18,0.53,0.83,0.41,-0.91,-2.11,-0.06,-0.14,-0.12,0.00
12.484,-0.18,0.53,0.83,0.13,-0.09,0.02,-0.06,-0.14,-0.12,0.00
12.541,-0.24,0.56,1.20,0.13,-0.09,0.02,-0.06,-0.14,-0.12,0.00
12.552,-0.24,0.56,1.20,0.13,-0.09,0.02,-0.80,-0.13,0.07,0.00
12.552,-0.24,0.56,1.20,-0.62,0.52,3.48,-0.80,-0.13,0.07,0.00
12.607,-0.25,0.49,0.57,-0.62,0.52,3.48,-0.80,-0.13,0.07,0.00
12.619,-0.25,0.49,0.57,-0.62,0.52,3.48,0.61,0.09,-0.99,0.00
12.629,-0.25,0.49,0.57,0.27,-0.59,-3.75,0.61,0.09,-0.99,0.00
12.678,-0.19,0.43,0.61,0.27,-0.59,-3.75,0.61,0.09,-0.99,0.00
12.682,-0.19,0.43,0.61,0.27,-0.59,-3.75,0.79,-0.07,-0.47,0.00
12.682,-0.19,0.43,0.61,0.70,-1.32,-2.55,0.79,-0.07,-0.47,0.00
12.757,-0.25,0.47,0.57,0.70,-1.32,-2.55,0.79,-0.07,-0.47,0.00
12.758,-0.25,0.47,0.57,0.70,-1.32,-2.55,0.58,0.06,-0.83,0.00
12.759,-0.25,0.47,0.57,0.47,-0.81,-2.14,0.58,0.06,-0.83,0.00
12.805,-0.09,0.48,0.56,0.47,-0.81,-2.14,0.58,0.06,-0.83,0.00
12.817,-0.09,0.48,0.56,0.47,-0.81,-2.14,0.59,-0.26,0.49,0.00
12.818,-0.09,0.48,0.56,1.08,-0.60,-2.05,0.59,-0.26,0.49,0.00
12.872,-0.30,0.61,1.33,1.08,-0.60,-2.05,0.59,-0.26,0.49,0.00
12.88,-0.30,0.61,1.33,1.08,-0.60,-2.05,-0.84,-0.17,0.10,0.00
12.88,-0.30,0.61,1.33,-0.76,0.28,5.37,-0.84,-0.17,0.10,0.00
12.937,-0.16,0.62,1.04,-0.76,0.28,5.37,-0.84,-0.17,0.10,0.00
12.947,-0.16,0.62,1.04,-0.76,0.28,5.37,-0.89,-0.18,0.36,0.00
12.948,-0.16,0.62,1.04,0.46,1.10,2.00,-0.89,-0.18,0.36,0.00
13.038,-0.18,0.67,0.98,0.46,1.10,2.00,-0.89,-0.18,0.36,0.00
13.04,-0.18,0.67,0.98,0.46,1.10,2.00,-0.19,-0.25,0.76,0.00
13.04,-0.18,0.67,0.98,-0.21,1.68,1.30,-0.19,-0.25,0.76,0.00
13.074,-0.09,0.59,0.85,-0.21,1.68,1.30,-0.19,-0.25,0.76,0.00
13.078,-0.09,0.59,0.85,-0.21,1.68,1.30,0.39,-0.17,0.44,0.00
13.078,-0.09,0.59,0.85,1.09,0.02,-0.11,0.39,-0.17,0.44,0.00
13.165,-0.02,0.49,0.67,1.09,0.02,-0.11,0.39,-0.17,0.44,0.00
13.167,-0.02,0.49,0.67,1.09,0.02,-0.11,0.09,-0.32,0.95,0.00
13.168,-0.02,0.49,0.67,0.70,-0.50,-1.64,0.09,-0.32,0.95,0.00
13.201,-0.02,0.50,0.69,0.70,-0.50,-1.64,0.09,-0.32,0.95,0.00
13.21,-0.02,0.50,0.69,0.70,-0.50,-1.64,0.30,-0.22,0.51,0.00
13.211,-0.02,0.50,0.69,0.45,-0.63,-1.31,0.30,-0.22,0.51,0.00
13.267,-0.03,0.48,0.60,0.45,-0.63,-1.31,0.30,-0.22,0.51,0.00
13.276,-0.03,0.48,0.60,0.45,-0.63,-1.31,0.35,-0.13,0.12,0.00
13.276,-0.03,0.48,0.60,-0.11,-0.99,-2.07,0.35,-0.13,0.12,0.00
13.34,-0.23,0.59,0.73,-0.11,-0.99,-2.07,0.35,-0.13,0.12,0.00
13.345,-0.23,0.59,0.73,-0.11,-0.99,-2.07,0.45,0.24,-1.03,0.00
13.346,-0.23,0.59,0.73,-1.25,-0.13,-0.55,0.45,0.24,-1.03,0.00
13.399,-0.12,0.56,0.84,-1.25,-0.13,-0.55,0.45,0.24,-1.03,0.00
13.409,-0.12,0.56,0.84,-1.25,-0.13,-0.55,-0.32,0.20,-0.50,0.00
13.409,-0.12,0.56,0.84,0.16,-0.33,0.42,-0.32,0.20,-0.50,0.00
13.476,-0.05,0.60,0.85,0.16,-0.33,0.42,-0.32,0.20,-0.50,0.00
13.477,-0.05,0.60,0.85,0.16,-0.33,0.42,-0.25,-0.00,0.36,0.00
13.478,-0.05,0.60,0.85,0.80,0.18,0.45,-0.25,-0.00,0.36,0.00
13.539,-0.09,0.74,0.85,0.80,0.18,0.45,-0.25,-0.00,0.36,0.00
13.544,-0.09,0.74,0.85,0.80,0.18,0.45,0.30,-0.34,1.29,0.00
13.544,-0.09,0.74,0.85,-0.32,1.30,0.52,0.30,-0.34,1.29,0.00
13.597,0.12,0.56,0.90,-0.32,1.30,0.52,0.30,-0.34,1.29,0.00
13.606,0.12,0.56,0.90,-0.32,1.30,0.52,-0.32,-0.28,1.06,0.00
13.606,0.12,0.56,0.90,1.32,-0.35,0.91,-0.32,-0.28,1.06,0.00
13.673,-0.13,0.55,0.73,1.32,-0.35,0.91,-0.32,-0.28,1.06,0.00
13.675,-0.13,0.55,0.73,1.32,-0.35,0.91,-0.41,-0.08,0.17,0.00
13.675,-0.13,0.55,0.73,-1.44,-0.13,-0.93,-0.41,-0.08,0.17,0.00
13.737,-0.25,0.56,0.91,-1.44,-0.13,-0.93,-0.41,-0.08,0.17,0.00
13.74,-0.25,0.56,0.91,-1.44,-0.13,-0.93,-0.23,0.38,-1.59,0.00
13.741,-0.25,0.56,0.91,-2.56,0.89,-0.15,-0.23,0.38,-1.59,0.00
13.795,-0.11,0.50,0.74,-2.56,0.89,-0.15,-0.23,0.38,-1.59,0.00
13.804,-0.11,0.50,0.74,-2.56,0.89,-0.15,0.61,0.22,-1.39,0.00
13.804,-0.11,0.50,0.74,0.60,-0.82,-0.53,0.61,0.22,-1.39,0.00
13.887,-0.13,0.50,0.67,0.60,-0.82,-0.53,0.61,0.22,-1.39,0.00
13.889,-0.13,0.50,0.67,0.60,-0.82,-0.53,-0.21,-0.18,0.15,0.00
13.89,-0.13,0.50,0.67,0.23,-0.71,-1.29,-0.21,-0.18,0.15,0.00
13.934,-0.05,0.72,0.92,0.23,-0.71,-1.29,-0.21,-0.18,0.15,0.00
13.94,-0.05,0.72,0.92,0.23,-0.71,-1.29,0.29,-0.26,0.31,0.00
13.94,-0.05,0.72,0.92,0.80,1.30,1.14,0.29,-0.26,0.31,0.00
13.993,0.00,0.75,1.14,0.80,1.30,1.14,0.29,-0.26,0.31,0.00
14.002,0.00,0.75,1.14,0.80,1.30,1.14,-0.20,-0.38,1.03,0.00
14.003,0.00,0.75,1.14,0.75,1.60,3.25,-0.20,-0.38,1.03,0.00
14.059,0.18,0.56,1.30,0.75,1.60,3.25,-0.20,-0.38,1.03,0.00
14.068,0.18,0.56,1.30,0.75,1.60,3.25,-1.23,-0.31,1.75,0.00
14.069,0.18,0.56,1.30,1.73,0.21,4.44,-1.23,-0.31,1.75,0.00
14.148,-0.02,0.59,0.62,1.73,0.21,4.44,-1.23,-0.31,1.75,0.00
14.15,-0.02,0.59,0.62,1.73,0.21,4.44,0.46,-0.18,0.09,0.00
14.15,-0.02,0.59,0.62,0.36,-0.49,-1.26,0.46,-0.18,0.09,0.00
14.191,0.10,0.43,0.74,0.36,-0.49,-1.26,0.46,-0.18,0.09,0.00
14.2,0.10,0.43,0.74,0.36,-0.49,-1.26,-0.02,-0.16,0.49,0.00
14.201,0.10,0.43,0.74,-0.72,-0.50,-2.06,-0.02,-0.16,0.49,0.00
14.257,-0.05,0.46,0.53,-0.72,-0.50,-2.06,-0.02,-0.16,0.49,0.00
14.266,-0.05,0.46,0.53,-0.72,-0.50,-2.06,0.74,0.13,-1.04,0.00
14.268,-0.05,0.46,0.53,-0.65,-1.18,-2.80,0.74,0.13,-1.04,0.00
14.344,-0.03,0.48,0.61,-0.65,-1.18,-2.80,0.74,0.13,-1.04,0.00
14.348,-0.03,0.48,0.61,-0.65,-1.18,-2.80,0.38,0.02,-0.35,0.00
14.349,-0.03,0.48,0.61,-0.29,-1.21,-1.83,0.38,0.02,-0.35,0.00
14.389,-0.07,0.53,0.80,-0.29,-1.21,-1.83,0.38,0.02,-0.35,0.00
14.398,-0.07,0.53,0.80,-0.29,-1.21,-1.83,-0.09,0.23,-0.63,0.00
14.399,-0.07,0.53,0.80,0.17,-0.90,1.05,-0.09,0.23,-0.63,0.00
14.474,-0.09,0.70,0.99,0.17,-0.90,1.05,-0.09,0.23,-0.63,0.00
14.476,-0.09,0.70,0.99,0.17,-0.90,1.05,-0.40,0.22,-0.29,0.00
14.477,-0.09,0.70,0.99,-0.21,1.06,1.80,-0.40,0.22,-0.29,0.00
14.542,-0.08,0.40,1.46,-0.21,1.06,1.80,-0.40,0.22,-0.29,0.00
14.543,-0.08,0.40,1.46,-0.21,1.06,1.80,-2.07,0.23,0.44,0.00
14.544,-0.08,0.40,1.46,-0.10,-1.05,5.89,-2.07,0.23,0.44,0.00
14.587,-0.06,0.47,0.89,-0.10,-1.05,5.89,-2.07,0.23,0.44,0.00
14.596,-0.06,0.47,0.89,-0.10,-1.05,5.89,-0.71,0.05,0.23,0.00
14.596,-0.06,0.47,0.89,-0.62,1.08,-1.08,-0.71,0.05,0.23,0.00
14.653,-0.26,0.45,0.64,-0.62,1.08,-1.08,-0.71,0.05,0.23,0.00
14.662,-0.26,0.45,0.64,-0.62,1.08,-1.08,0.83,0.36,-1.54,0.00
14.663,-0.26,0.45,0.64,-1.46,-0.09,-2.43,0.83,0.36,-1.54,0.00
14.756,-0.31,0.45,0.87,-1.46,-0.09,-2.43,0.83,0.36,-1.54,0.00
14.758,-0.31,0.45,0.87,-1.46,-0.09,-2.43,0.65,0.58,-2.02,0.00
14.758,-0.31,0.45,0.87,-0.88,-0.37,0.21,0.65,0.58,-2.02,0.00
14.789,-0.08,0.32,0.90,-0.88,-0.37,0.21,0.65,0.58,-2.02,0.00
14.794,-0.08,0.32,0.90,-0.88,-0.37,0.21,-0.91,-0.09,0.18,0.00
14.795,-0.08,0.32,0.90,1.49,-1.25,0.30,-0.91,-0.09,0.18,0.00
14.851,-0.14,0.33,0.74,1.49,-1.25,0.30,-0.91,-0.09,0.18,0.00
14.86,-0.14,0.33,0.74,1.49,-1.25,0.30,-0.56,-0.20,0.73,0.00
14.861,-0.14,0.33,0.74,0.43,-0.78,-1.51,-0.56,-0.20,0.73,0.00
14.917,-0.11,0.41,0.76,0.43,-0.78,-1.51,-0.56,-0.20,0.73,0.00
14.927,-0.11,0.41,0.76,0.43,-0.78,-1.51,0.11,-0.06,0.21,0.00
14.928,-0.11,0.41,0.76,0.58,-0.02,-1.28,0.11,-0.06,0.21,0.00
14.99,-0.02,0.44,1.06,0.58,-0.02,-1.28,0.11,-0.06,0.21,0.00
14.998,-0.02,0.44,1.06,0.58,-0.02,-1.28,-0.24,-0.31,1.07,0.00
14.998,-0.02,0.44,1.06,1.17,0.18,1.60,-0.24,-0.31,1.07,0.00
15.075,-0.05,0.47,1.17,1.17,0.18,1.60,-0.24,-0.31,1.07,0.00
15.078,-0.05,0.47,1.17,1.17,0.18,1.60,-0.42,-0.29,1.18,0.00
15.078,-0.05,0.47,1.17,0.12,0.76,2.52,-0.42,-0.29,1.18,0.00
15.118,-0.05,0.41,1.00,0.12,0.76,2.52,-0.42,-0.29,1.18,0.00
15.125,-0.05,0.41,1.00,0.12,0.76,2.52,-0.39,-0.05,0.51,0.00
15.126,-0.05,0.41,1.00,-0.03,0.44,0.72,-0.39,-0.05,0.51,0.00
15.182,-0.06,0.39,0.76,-0.03,0.44,0.72,-0.39,-0.05,0.51,0.00
15.19,-0.06,0.39,0.76,-0.03,0.44,0.72,0.33,0.01,-0.10,0.00
15.191,-0.06,0.39,0.76,-0.13,0.15,-1.65,0.33,0.01,-0.10,0.00
15.251,-0.02,0.40,0.69,-0.13,0.15,-1.65,0.33,0.01,-0.10,0.00
15.256,-0.02,0.40,0.69,-0.13,0.15,-1.65,0.72,-0.04,-0.14,0.00
15.257,-0.02,0.40,0.69,0.31,-0.11,-2.13,0.72,-0.04,-0.14,0.00
15.315,-0.10,0.42,0.92,0.31,-0.11,-2.13,0.72,-0.04,-0.14,0.00
15.326,-0.10,0.42,0.92,0.31,-0.11,-2.13,0.34,0.02,0.03,0.00
15.327,-0.10,0.42,0.92,-0.51,-0.23,0.26,0.34,0.02,0.03,0.00
15.388,-0.03,0.35,0.99,-0.51,-0.23,0.26,0.34,0.02,0.03,0.00
15.395,-0.03,0.35,0.99,-0.51,-0.23,0.26,-0.73,0.18,0.30,0.00
15.396,-0.03,0.35,0.99,0.29,-0.57,0.77,-0.73,0.18,0.30,0.00
15.451,0.00,0.52,1.07,0.29,-0.57,0.77,-0.73,0.18,0.30,0.00
15.457,0.00,0.52,1.07,0.29,-0.57,0.77,0.06,-0.11,0.49,0.00
15.457,0.00,0.52,1.07,0.48,1.15,1.55,0.06,-0.11,0.49,0.00
15.511,-0.18,0.57,1.00,0.48,1.15,1.55,0.06,-0.11,0.49,0.00
15.521,-0.18,0.57,1.00,0.48,1.15,1.55,0.47,0.21,-0.58,0.00
15.522,-0.18,0.57,1.00,-1.23,1.42,0.90,0.47,0.21,-0.58,0.00
15.577,-0.03,0.49,1.18,-1.23,1.42,0.90,0.47,0.21,-0.58,0.00
15.587,-0.03,0.49,1.18,-1.23,1.42,0.90,0.00,0.02,0.01,0.00
15.587,-0.03,0.49,1.18,0.58,0.53,2.87,0.00,0.02,0.01,0.00
15.646,-0.35,0.57,0.85,0.58,0.53,2.87,0.00,0.02,0.01,0.00
15.653,-0.35,0.57,0.85,0.58,0.53,2.87,0.58,0.42,-1.38,0.00
15.654,-0.35,0.57,0.85,-2.38,1.17,-0.36,0.58,0.42,-1.38,0.00
15.709,-0.14,0.42,0.82,-2.38,1.17,-0.36,0.58,0.42,-1.38,0.00
15.719,-0.14,0.42,0.82,-2.38,1.17,-0.36,0.38,0.32,-1.03,0.00
15.72,-0.14,0.42,0.82,0.48,-0.54,-0.36,0.38,0.32,-1.03,0.00
15.781,-0.17,0.40,0.80,0.48,-0.54,-0.36,0.38,0.32,-1.03,0.00
15.79,-0.17,0.40,0.80,0.48,-0.54,-0.36,-0.02,-0.03,-0.07,0.00
15.795,-0.17,0.40,0.80,0.32,-0.48,-0.38,-0.02,-0.03,-0.07,0.00
15.841,-0.21,0.40,0.62,0.32,-0.48,-0.38,-0.02,-0.03,-0.07,0.00
15.85,-0.21,0.40,0.62,0.32,-0.48,-0.38,0.06,0.07,-0.34,0.00
15.851,-0.21,0.40,0.62,-0.12,-0.56,-2.41,0.06,0.07,-0.34,0.00
15.907,-0.14,0.38,0.77,-0.12,-0.56,-2.41,0.06,0.07,-0.34,0.00
15.917,-0.14,0.38,0.77,-0.12,-0.56,-2.41,-0.01,0.01,0.01,0.00
15.918,-0.14,0.38,0.77,0.66,-0.84,-0.85,-0.01,0.01,0.01,0.00
15.973,-0.17,0.45,0.80,0.66,-0.84,-0.85,-0.01,0.01,0.01,0.00
15.982,-0.17,0.45,0.80,0.66,-0.84,-0.85,-0.13,-0.06,0.37,0.00
15.983,-0.17,0.45,0.80,0.20,-0.16,-0.61,-0.13,-0.06,0.37,0.00
16.047,-0.04,0.57,0.92,0.20,-0.16,-0.61,-0.13,-0.06,0.37,0.00
16.048,-0.04,0.57,0.92,0.20,-0.16,-0.61,0.07,-0.27,1.14,0.00
16.049,-0.04,0.57,0.92,1.04,0.88,0.49,0.07,-0.27,1.14,0.00
16.105,-0.11,0.68,1.11,1.04,0.88,0.49,0.07,-0.27,1.14,0.00
16.118,-0.11,0.68,1.11,1.04,0.88,0.49,1.33,-0.32,0.89,0.00
16.118,-0.11,0.68,1.11,-0.72,1.26,4.66,1.33,-0.32,0.89,0.00
16.193,-0.12,0.78,0.97,-0.72,1.26,4.66,1.33,-0.32,0.89,0.00
16.195,-0.12,0.78,0.97,-0.72,1.26,4.66,-0.13,0.11,0.30,0.00
16.196,-0.12,0.78,0.97,-0.23,2.32,1.33,-0.13,0.11,0.30,0.00
16.25,-0.02,0.66,1.01,-0.23,2.32,1.33,-0.13,0.11,0.30,0.00
16.253,-0.02,0.66,1.01,-0.23,2.32,1.33,0.12,-0.10,0.70,0.00
16.254,-0.02,0.66,1.01,0.45,0.91,1.88,0.12,-0.10,0.70,0.00
16.305,-0.08,0.54,0.88,0.45,0.91,1.88,0.12,-0.10,0.70,0.00
16.314,-0.08,0.54,0.88,0.45,0.91,1.88,-0.18,0.04,0.39,0.00
16.315,-0.08,0.54,0.88,-0.30,-0.23,0.54,-0.18,0.04,0.39,0.00
16.369,-0.05,0.44,0.70,-0.30,-0.23,0.54,-0.18,0.04,0.39,0.00
16.378,-0.05,0.44,0.70,-0.30,-0.23,0.54,-0.24,0.13,0.06,0.00
16.38,-0.05,0.44,0.70,0.11,-1.08,-1.36,-0.24,0.13,0.06,0.00
16.458,-0.16,0.38,0.56,0.11,-1.08,-1.36,-0.24,0.13,0.06,0.00
16.46,-0.16,0.38,0.56,0.11,-1.08,-1.36,0.00,0.40,-0.72,0.00
16.461,-0.16,0.38,0.56,-1.71,-1.11,-1.43,0.00,0.40,-0.72,0.00
16.501,-0.19,0.42,0.69,-1.71,-1.11,-1.43,0.00,0.40,-0.72,0.00
16.512,-0.19,0.42,0.69,-1.71,-1.11,-1.43,-0.33,0.55,-1.03,0.00
16.516,-0.19,0.42,0.69,-0.22,-0.88,-1.45,-0.33,0.55,-1.03,0.00
16.567,-0.29,0.47,1.05,-0.22,-0.88,-1.45,-0.33,0.55,-1.03,0.00
16.576,-0.29,0.47,1.05,-0.22,-0.88,-1.45,-0.38,0.43,-0.75,0.00
16.577,-0.29,0.47,1.05,-0.74,-0.24,2.04,-0.38,0.43,-0.75,0.00
16.652,-0.16,0.39,1.24,-0.74,-0.24,2.04,-0.38,0.43,-0.75,0.00
16.653,-0.16,0.39,1.24,-0.74,-0.24,2.04,-1.66,0.07,1.01,0.00
16.654,-0.16,0.39,1.24,0.34,-0.21,3.48,-1.66,0.07,1.01,0.00
16.699,-0.49,0.50,0.87,0.34,-0.21,3.48,-1.66,0.07,1.01,0.00
16.709,-0.49,0.50,0.87,0.34,-0.21,3.48,-0.06,0.55,-0.77,0.00
16.71,-0.49,0.50,0.87,-2.66,1.22,-0.32,-0.06,0.55,-0.77,0.00
16.765,-0.28,0.37,0.62,-2.66,1.22,-0.32,-0.06,0.55,-0.77,0.00
16.774,-0.28,0.37,0.62,-2.66,1.22,-0.32,0.96,0.59,-1.19,0.00
16.776,-0.28,0.37,0.62,0.33,-0.39,-2.34,0.96,0.59,-1.19,0.00
16.851,-0.20,0.41,0.73,0.33,-0.39,-2.34,0.96,0.59,-1.19,0.00
16.852,-0.20,0.41,0.73,0.33,-0.39,-2.34,0.36,0.10,0.59,0.00
16.853,-0.20,0.41,0.73,1.07,-0.35,-1.09,0.36,0.10,0.59,0.00
16.897,-0.28,0.45,0.98,1.07,-0.35,-1.09,0.36,0.10,0.59,0.00
16.907,-0.28,0.45,0.98,1.07,-0.35,-1.09,-0.23,0.11,0.91,0.00
16.908,-0.28,0.45,0.98,0.05,-0.12,1.35,-0.23,0.11,0.91,0.00
16.963,-0.20,0.42,0.92,0.05,-0.12,1.35,-0.23,0.11,0.91,0.00
16.972,-0.20,0.42,0.92,0.05,-0.12,1.35,-0.92,0.05,1.36,0.00
16.973,-0.20,0.42,0.92,0.44,-0.07,0.52,-0.92,0.05,1.36,0.00
17.04,-0.17,0.41,1.04,0.44,-0.07,0.52,-0.92,0.05,1.36,0.00
17.042,-0.17,0.41,1.04,0.44,-0.07,0.52,-0.72,0.05,1.47,0.00
17.043,-0.17,0.41,1.04,0.44,-0.01,1.46,-0.72,0.05,1.47,0.00
17.095,-0.08,0.35,1.15,0.44,-0.01,1.46,-0.72,0.05,1.47,0.00
17.105,-0.08,0.35,1.15,0.44,-0.01,1.46,-1.18,-0.08,2.25,0.00
17.106,-0.08,0.35,1.15,1.19,-0.39,1.87,-1.18,-0.08,2.25,0.00
17.162,-0.03,0.44,0.86,1.19,-0.39,1.87,-1.18,-0.08,2.25,0.00
17.17,-0.03,0.44,0.86,1.19,-0.39,1.87,-0.45,-0.30,1.92,0.00
17.171,-0.03,0.44,0.86,0.65,0.89,-0.67,-0.45,-0.30,1.92,0.00
17.227,-0.21,0.47,1.03,0.65,0.89,-0.67,-0.45,-0.30,1.92,0.00
17.236,-0.21,0.47,1.03,0.65,0.89,-0.67,0.36,0.30,0.02,0.00
17.236,-0.21,0.47,1.03,-1.09,0.88,1.07,0.36,0.30,0.02,0.00
17.293,-0.05,0.34,1.02,-1.09,0.88,1.07,0.36,0.30,0.02,0.00
17.305,-0.05,0.34,1.02,-1.09,0.88,1.07,-0.26,0.27,0.67,0.00
17.305,-0.05,0.34,1.02,1.04,-0.63,0.65,-0.26,0.27,0.67,0.00
17.388,-0.16,0.39,0.89,1.04,-0.63,0.65,-0.26,0.27,0.67,0.00
17.394,-0.16,0.39,0.89,1.04,-0.63,0.65,-0.57,-0.00,1.26,0.00
17.395,-0.16,0.39,0.89,0.17,-0.14,0.65,-0.57,-0.00,1.26,0.00
17.425,-0.15,0.33,0.90,0.17,-0.14,0.65,-0.57,-0.00,1.26,0.00
17.434,-0.15,0.33,0.90,0.17,-0.14,0.65,0.60,0.54,-0.88,0.00
17.435,-0.15,0.33,0.90,-0.23,-0.49,-0.20,0.60,0.54,-0.88,0.00
17.491,-0.12,0.32,0.70,-0.23,-0.49,-0.20,0.60,0.54,-0.88,0.00
17.503,-0.12,0.32,0.70,-0.23,-0.49,-0.20,-0.31,0.18,0.51,0.00
17.504,-0.12,0.32,0.70,0.04,-0.38,-2.25,-0.31,0.18,0.51,0.00
17.561,-0.35,0.52,0.86,0.04,-0.38,-2.25,-0.31,0.18,0.51,0.00
17.566,-0.35,0.52,0.86,0.04,-0.38,-2.25,1.19,0.58,-1.68,0.00
17.567,-0.35,0.52,0.86,-1.76,0.82,1.01,1.19,0.58,-1.68,0.00
17.623,-0.30,0.26,1.13,-1.76,0.82,1.01,1.19,0.58,-1.68,0.00
17.635,-0.30,0.26,1.13,-1.76,0.82,1.01,-0.96,0.91,0.03,0.00
17.636,-0.30,0.26,1.13,-0.39,-1.12,2.37,-0.96,0.91,0.03,0.00
17.716,-0.07,0.26,0.67,-0.39,-1.12,2.37,-0.96,0.91,0.03,0.00
17.718,-0.07,0.26,0.67,-0.39,-1.12,2.37,-1.49,0.22,1.85,0.00
17.719,-0.07,0.26,0.67,1.60,-0.49,-2.46,-1.49,0.22,1.85,0.00
17.758,-0.28,0.36,0.98,1.60,-0.49,-2.46,-1.49,0.22,1.85,0.00
17.765,-0.28,0.36,0.98,1.60,-0.49,-2.46,-0.03,0.09,0.37,0.00
17.766,-0.28,0.36,0.98,-0.85,0.38,1.60,-0.03,0.09,0.37,0.00
17.822,-0.27,0.36,0.79,-0.85,0.38,1.60,-0.03,0.09,0.37,0.00
17.83,-0.27,0.36,0.79,-0.85,0.38,1.60,0.09,0.27,-0.07,0.00
17.831,-0.27,0.36,0.79,-0.35,0.47,-1.27,0.09,0.27,-0.07,0.00
17.887,-0.23,0.36,0.71,-0.35,0.47,-1.27,0.09,0.27,-0.07,0.00
17.904,-0.23,0.36,0.71,-0.35,0.47,-1.27,0.96,0.03,-0.91,0.00
17.906,-0.23,0.36,0.71,0.39,0.01,-1.77,0.96,0.03,-0.91,0.00
17.961,-0.17,0.38,0.92,0.39,0.01,-1.77,0.96,0.03,-0.91,0.00
17.963,-0.17,0.38,0.92,0.39,0.01,-1.77,0.12,-0.23,0.61,0.00
17.964,-0.17,0.38,0.92,0.67,0.05,0.22,0.12,-0.23,0.61,0.00
18.019,-0.19,0.41,0.90,0.67,0.05,0.22,0.12,-0.23,0.61,0.00
18.028,-0.19,0.41,0.90,0.67,0.05,0.22,-0.04,-0.09,0.69,0.00
18.028,-0.19,0.41,0.90,0.26,-0.07,0.61,-0.04,-0.09,0.69,0.00
18.097,-0.23,0.33,1.10,0.26,-0.07,0.61,-0.04,-0.09,0.69,0.00
18.114,-0.23,0.33,1.10,0.26,-0.07,0.61,-0.82,0.27,1.19,0.00
18.115,-0.23,0.33,1.10,-0.36,-0.28,1.83,-0.82,0.27,1.19,0.00
18.161,-0.10,0.32,0.78,-0.36,-0.28,1.83,-0.82,0.27,1.19,0.00
18.163,-0.10,0.32,0.78,-0.36,-0.28,1.83,-0.24,0.06,0.74,0.00
18.163,-0.10,0.32,0.78,0.89,-0.30,-1.40,-0.24,0.06,0.74,0.00
18.217,-0.14,0.31,0.98,0.89,-0.30,-1.40,-0.24,0.06,0.74,0.00
18.226,-0.14,0.31,0.98,0.89,-0.30,-1.40,-0.54,0.03,1.22,0.00
18.226,-0.14,0.31,0.98,-1.17,-0.16,2.23,-0.54,0.03,1.22,0.00
18.283,-0.19,0.16,1.00,-1.17,-0.16,2.23,-0.54,0.03,1.22,0.00
18.295,-0.19,0.16,1.00,-1.17,-0.16,2.23,-1.30,0.90,1.61,0.00
18.296,-0.19,0.16,1.00,-0.16,-0.97,0.51,-1.30,0.90,1.61,0.00
18.367,0.03,0.10,0.52,-0.16,-0.97,0.51,-1.30,0.90,1.61,0.00
18.369,0.03,0.10,0.52,-0.16,-0.97,0.51,-0.90,-0.15,1.73,0.00
18.369,0.03,0.10,0.52,1.67,-1.19,-4.37,-0.90,-0.15,1.73,0.00
18.415,0.03,0.15,0.60,1.67,-1.19,-4.37,-0.90,-0.15,1.73,0.00
18.424,0.03,0.15,0.60,1.67,-1.19,-4.37,-0.05,-0.92,0.79,0.00
18.424,0.03,0.15,0.60,0.69,-0.21,-3.03,-0.05,-0.92,0.79,0.00
18.481,-0.13,0.38,0.76,0.69,-0.21,-3.03,-0.05,-0.92,0.79,0.00
18.492,-0.13,0.38,0.76,0.69,-0.21,-3.03,1.19,-0.31,-1.32,0.00
18.492,-0.13,0.38,0.76,-0.75,1.09,-1.93,1.19,-0.31,-1.32,0.00
18.559,-0.04,0.37,1.10,-0.75,1.09,-1.93,1.19,-0.31,-1.32,0.00
18.56,-0.04,0.37,1.10,-0.75,1.09,-1.93,0.70,-0.31,-0.58,0.00
18.571,-0.04,0.37,1.10,0.28,0.24,1.58,0.70,-0.31,-0.58,0.00
18.613,-0.12,0.42,1.03,0.28,0.24,1.58,0.70,-0.31,-0.58,0.00
18.622,-0.12,0.42,1.03,0.28,0.24,1.58,0.20,0.10,-0.08,0.00
18.623,-0.12,0.42,1.03,-0.51,0.74,0.91,0.20,0.10,-0.08,0.00
18.68,-0.27,0.37,1.38,-0.51,0.74,0.91,0.20,0.10,-0.08,0.00
18.69,-0.27,0.37,1.38,-0.51,0.74,0.91,-0.67,1.06,0.59,0.00
18.69,-0.27,0.37,1.38,-2.34,-0.44,7.00,-0.67,1.06,0.59,0.00
18.77,-0.40,0.33,1.19,-2.34,-0.44,7.00,-0.67,1.06,0.59,0.00
18.771,-0.40,0.33,1.19,-2.34,-0.44,7.00,-1.36,1.68,1.57,0.00
18.772,-0.40,0.33,1.19,-2.24,0.76,2.28,-1.36,1.68,1.57,0.00
18.812,-0.28,0.35,1.04,-2.24,0.76,2.28,-1.36,1.68,1.57,0.00
18.82,-0.28,0.35,1.04,-2.24,0.76,2.28,0.04,0.40,-0.15,0.00
18.821,-0.28,0.35,1.04,-0.62,1.11,0.90,0.04,0.40,-0.15,0.00
18.878,-0.25,0.31,0.76,-0.62,1.11,0.90,0.04,0.40,-0.15,0.00
18.889,-0.25,0.31,0.76,-0.62,1.11,0.90,1.06,0.01,-1.60,0.00
18.889,-0.25,0.31,0.76,0.89,-0.45,-2.55,1.06,0.01,-1.60,0.00
18.994,-0.07,0.16,0.75,0.89,-0.45,-2.55,1.06,0.01,-1.60,0.00
18.996,-0.07,0.16,0.75,0.89,-0.45,-2.55,-0.17,-0.44,0.77,0.00
18.996,-0.07,0.16,0.75,1.53,-1.38,-1.80,-0.17,-0.44,0.77,0.00
19.01,-0.21,0.20,0.55,1.53,-1.38,-1.80,-0.17,-0.44,0.77,0.00
19.018,-0.21,0.20,0.55,1.53,-1.38,-1.80,-0.02,0.30,0.21,0.00
19.018,-0.21,0.20,0.55,0.14,-0.87,-3.73,-0.02,0.30,0.21,0.00
19.075,-0.08,0.17,0.69,0.14,-0.87,-3.73,-0.02,0.30,0.21,0.00
19.086,-0.08,0.17,0.69,0.14,-0.87,-3.73,-0.41,-0.17,0.96,0.00
19.087,-0.08,0.17,0.69,1.33,-0.53,-2.77,-0.41,-0.17,0.96,0.00
19.165,-0.03,0.41,0.49,1.33,-0.53,-2.77,-0.41,-0.17,0.96,0.00
19.171,-0.03,0.41,0.49,1.33,-0.53,-2.77,2.27,-1.83,-2.38,0.00
19.171,-0.03,0.41,0.49,1.03,1.44,-2.45,2.27,-1.83,-2.38,0.00
19.207,0.05,0.41,1.64,1.03,1.44,-2.45,2.27,-1.83,-2.38,0.00
19.216,0.05,0.41,1.64,1.03,1.44,-2.45,-0.56,-0.76,1.68,0.00
19.216,0.05,0.41,1.64,1.17,0.07,7.14,-0.56,-0.76,1.68,0.00
19.274,0.10,0.36,1.24,1.17,0.07,7.14,-0.56,-0.76,1.68,0.00
19.284,0.10,0.36,1.24,1.17,0.07,7.14,-1.28,-0.39,2.18,0.00
19.285,0.10,0.36,1.24,0.64,0.59,1.96,-1.28,-0.39,2.18,0.00
19.339,-0.07,0.39,1.09,0.64,0.59,1.96,-1.28,-0.39,2.18,0.00
19.348,-0.07,0.39,1.09,0.64,0.59,1.96,0.06,0.11,-0.26,0.00
19.348,-0.07,0.39,1.09,-1.69,1.21,-0.53,0.06,0.11,-0.26,0.00
19.405,-0.12,0.39,0.53,-1.69,1.21,-0.53,0.06,0.11,-0.26,0.00
19.414,-0.12,0.39,0.53,-1.69,1.21,-0.53,1.25,0.20,-2.19,0.00
19.415,-0.12,0.39,0.53,-0.67,0.24,-3.96,1.25,0.20,-2.19,0.00
19.471,-0.12,0.41,0.75,-0.67,0.24,-3.96,1.25,0.20,-2.19,0.00
19.482,-0.12,0.41,0.75,-0.67,0.24,-3.96,1.01,-0.11,-1.65,0.00
19.483,-0.12,0.41,0.75,-0.30,-0.10,-1.45,1.01,-0.11,-1.65,0.00
19.537,-0.05,0.53,0.77,-0.30,-0.10,-1.45,1.01,-0.11,-1.65,0.00
19.546,-0.05,0.53,0.77,-0.30,-0.10,-1.45,1.01,-0.55,-1.02,0.00
19.546,-0.05,0.53,0.77,0.63,0.84,1.86,1.01,-0.55,-1.02,0.00
19.604,-0.22,0.60,1.07,0.63,0.84,1.86,1.01,-0.55,-1.02,0.00
19.613,-0.22,0.60,1.07,0.63,0.84,1.86,0.14,-0.06,0.05,0.00
19.614,-0.22,0.60,1.07,-1.31,1.10,1.95,0.14,-0.06,0.05,0.00
19.672,-0.11,0.33,1.16,-1.31,1.10,1.95,0.14,-0.06,0.05,0.00
19.679,-0.11,0.33,1.16,-1.31,1.10,1.95,-1.28,1.04,1.12,0.00
19.68,-0.11,0.33,1.16,0.08,-1.09,2.61,-1.28,1.04,1.12,0.00
19.742,-0.15,0.37,0.94,0.08,-1.09,2.61,-1.28,1.04,1.12,0.00
19.746,-0.15,0.37,0.94,0.08,-1.09,2.61,-1.05,0.44,1.33,0.00
19.747,-0.15,0.37,0.94,-0.38,-0.16,0.20,-1.05,0.44,1.33,0.00
19.803,-0.38,0.41,0.84,-0.38,-0.16,0.20,-1.05,0.44,1.33,0.00
19.811,-0.38,0.41,0.84,-0.38,-0.16,0.20,0.26,0.92,-1.37,0.00
19.812,-0.38,0.41,0.84,-1.25,0.03,-1.91,0.26,0.92,-1.37,0.00
19.883,-0.16,0.30,0.72,-1.25,0.03,-1.91,0.26,0.92,-1.37,0.00
19.886,-0.16,0.30,0.72,-1.25,0.03,-1.91,0.56,0.01,-1.19,0.00
19.887,-0.16,0.30,0.72,0.77,-0.93,-1.63,0.56,0.01,-1.19,0.00
19.934,-0.15,0.25,0.61,0.77,-0.93,-1.63,0.56,0.01,-1.19,0.00
19.942,-0.15,0.25,0.61,0.77,-0.93,-1.63,-0.43,0.18,0.59,0.00
19.942,-0.15,0.25,0.61,0.87,-1.25,-2.78,-0.43,0.18,0.59,0.00
20.001,-0.14,0.38,0.73,0.87,-1.25,-2.78,-0.43,0.18,0.59,0.00
20.008,-0.14,0.38,0.73,0.87,-1.25,-2.78,0.58,-0.54,-0.44,0.00
20.009,-0.14,0.38,0.73,0.79,-0.11,-1.56,0.58,-0.54,-0.44,0.00
20.089,0.03,0.77,1.23,0.79,-0.11,-1.56,0.58,-0.54,-0.44,0.00
20.091,0.03,0.77,1.23,0.79,-0.11,-1.56,0.92,-2.24,0.78,0.00
20.095,0.03,0.77,1.23,1.00,3.26,3.33,0.92,-2.24,0.78,0.00
20.132,-0.25,0.68,1.60,1.00,3.26,3.33,0.92,-2.24,0.78,0.00
20.14,-0.25,0.68,1.60,1.00,3.26,3.33,0.19,-0.05,-0.26,0.00
20.14,-0.25,0.68,1.60,-1.83,2.13,7.06,0.19,-0.05,-0.26,0.00
20.205,0.11,0.34,0.84,-1.83,2.13,7.06,0.19,-0.05,-0.26,0.00
20.207,0.11,0.34,0.84,-1.83,2.13,7.06,-0.48,0.05,0.87,0.00
20.207,0.11,0.34,0.84,1.64,-0.97,-0.60,-0.48,0.05,0.87,0.00
20.275,-0.08,0.37,0.45,1.64,-0.97,-0.60,-0.48,0.05,0.87,0.00
20.276,-0.08,0.37,0.45,1.64,-0.97,-0.60,0.40,-0.32,-0.45,0.00
20.277,-0.08,0.37,0.45,-0.49,-0.97,-4.92,0.40,-0.32,-0.45,0.00
20.33,0.16,0.27,0.44,-0.49,-0.97,-4.92,0.40,-0.32,-0.45,0.00
20.338,0.16,0.27,0.44,-0.49,-0.97,-4.92,0.92,-0.99,-0.68,0.00
20.339,0.16,0.27,0.44,1.77,-2.35,-4.15,0.92,-0.99,-0.68,0.00
20.396,-0.01,0.40,0.72,1.77,-2.35,-4.15,0.92,-0.99,-0.68,0.00
20.405,-0.01,0.40,0.72,1.77,-2.35,-4.15,0.20,-0.77,0.68,0.00
20.408,-0.01,0.40,0.72,-0.75,-1.30,-1.23,0.20,-0.77,0.68,0.00
20.481,-0.08,0.47,0.93,-0.75,-1.30,-1.23,0.20,-0.77,0.68,0.00
20.482,-0.08,0.47,0.93,-0.75,-1.30,-1.23,-0.83,1.27,0.29,0.00
20.483,-0.08,0.47,0.93,-0.73,0.03,0.46,-0.83,1.27,0.29,0.00
20.528,-0.09,0.64,0.91,-0.73,0.03,0.46,-0.83,1.27,0.29,0.00
20.536,-0.09,0.64,0.91,-0.73,0.03,0.46,0.55,-0.21,-1.19,0.00
20.537,-0.09,0.64,0.91,-0.54,1.54,0.38,0.55,-0.21,-1.19,0.00
20.604,-0.04,0.50,1.10,-0.54,1.54,0.38,0.55,-0.21,-1.19,0.00
20.607,-0.04,0.50,1.10,-0.54,1.54,0.38,0.06,-0.06,-0.48,0.00
20.607,-0.04,0.50,1.10,0.07,0.05,2.28,0.06,-0.06,-0.48,0.00
20.671,-0.13,0.51,1.32,0.07,0.05,2.28,0.06,-0.06,-0.48,0.00
20.673,-0.13,0.51,1.32,0.07,0.05,2.28,-0.95,0.63,0.98,0.00
20.673,-0.13,0.51,1.32,-0.87,0.74,4.14,-0.95,0.63,0.98,0.00
20.726,-0.18,0.43,0.72,-0.87,0.74,4.14,-0.95,0.63,0.98,0.00
20.734,-0.18,0.43,0.72,-0.87,0.74,4.14,0.35,0.29,-1.95,0.00
20.735,-0.18,0.43,0.72,-0.60,0.01,-1.76,0.35,0.29,-1.95,0.00
20.792,-0.09,0.34,0.61,-0.60,0.01,-1.76,0.35,0.29,-1.95,0.00
20.801,-0.09,0.34,0.61,-0.60,0.01,-1.76,0.37,-0.25,-0.91,0.00
20.803,-0.09,0.34,0.61,0.46,-0.94,-2.69,0.37,-0.25,-0.91,0.00
20.857,-0.11,0.38,0.59,0.46,-0.94,-2.69,0.37,-0.25,-0.91,0.00
20.867,-0.11,0.38,0.59,0.46,-0.94,-2.69,0.53,-0.26,-0.94,0.00
20.868,-0.11,0.38,0.59,0.44,-0.79,-2.80,0.53,-0.26,-0.94,0.00
20.924,0.17,0.49,0.74,0.44,-0.79,-2.80,0.53,-0.26,-0.94,0.00
20.932,0.17,0.49,0.74,0.44,-0.79,-2.80,0.32,-0.98,1.82,0.00
20.933,0.17,0.49,0.74,2.30,0.03,-1.34,0.32,-0.98,1.82,0.00
21.01,-0.15,0.50,1.59,2.30,0.03,-1.34,0.32,-0.98,1.82,0.00
21.012,-0.15,0.50,1.59,2.30,0.03,-1.34,-0.77,0.76,1.18,0.00
21.012,-0.15,0.50,1.59,-1.11,0.24,6.98,-0.77,0.76,1.18,0.00
21.056,0.02,0.42,0.86,-1.11,0.24,6.98,-0.77,0.76,1.18,0.00
21.066,0.02,0.42,0.86,-1.11,0.24,6.98,-0.77,0.50,1.29,0.00
21.067,0.02,0.42,0.86,0.64,0.12,-0.55,-0.77,0.50,1.29,0.00
21.121,-0.10,0.44,0.71,0.64,0.12,-0.55,-0.77,0.50,1.29,0.00
21.13,-0.10,0.44,0.71,0.64,0.12,-0.55,0.40,-0.33,-0.92,0.00
21.13,-0.10,0.44,0.71,-0.58,0.14,-1.91,0.40,-0.33,-0.92,0.00
21.187,0.01,0.38,0.81,-0.58,0.14,-1.91,0.40,-0.33,-0.92,0.00
21.196,0.01,0.38,0.81,-0.58,0.14,-1.91,0.10,-0.27,-0.05,0.00
21.196,0.01,0.38,0.81,0.55,-0.61,-0.89,0.10,-0.27,-0.05,0.00
21.253,-0.12,0.39,0.80,0.55,-0.61,-0.89,0.10,-0.27,-0.05,0.00
21.264,-0.12,0.39,0.80,0.55,-0.61,-0.89,0.34,-0.13,-0.84,0.00
21.264,-0.12,0.39,0.80,-0.67,-0.65,-0.90,0.34,-0.13,-0.84,0.00
21.319,-0.13,0.49,0.76,-0.67,-0.65,-0.90,0.34,-0.13,-0.84,0.00
21.32,-0.13,0.49,0.76,-0.67,-0.65,-0.90,0.34,-0.13,-0.84,0.00
21.32,-0.13,0.49,0.76,-0.67,-0.65,-0.90,0.34,-0.13,-0.84,0.00
21.321,-0.13,0.49,0.76,-0.67,-0.65,-0.90,0.34,-0.13,-0.84,0.00
21.321,-0.13,0.49,0.76,-0.67,-0.65,-0.90,0.34,-0.13,-0.84,0.00
21.322,-0.13,0.49,0.76,-0.67,-0.65,-0.90,0.34,-0.13,-0.84,0.00
21.328,-0.13,0.49,0.76,-0.67,-0.65,-0.90,0.24,0.14,-0.96,0.00
21.329,-0.13,0.49,0.76,-0.67,-0.65,-0.90,0.24,0.14,-0.96,0.00
21.329,-0.13,0.49,0.76,-0.67,-0.65,-0.90,0.24,0.14,-0.96,0.00
21.329,-0.13,0.49,0.76,-0.67,-0.65,-0.90,0.24,0.14,-0.96,0.00
21.33,-0.13,0.49,0.76,-0.67,-0.65,-0.90,0.24,0.14,-0.96,0.00
21.33,-0.13,0.49,0.76,-0.67,-0.65,-0.90,0.24,0.14,-0.96,0.00
21.33,-0.13,0.49,0.76,-0.67,-0.65,-0.90,0.24,0.14,-0.96,0.00
21.331,-0.15,0.55,0.69,-0.67,-0.65,-0.90,0.24,0.14,-0.96,0.00
21.338,-0.15,0.55,0.69,-0.67,-0.65,-0.90,0.55,-0.10,-1.44,0.00
21.339,-0.20,0.62,0.62,-0.67,-0.65,-0.90,0.55,-0.10,-1.44,0.00
21.348,-0.20,0.62,0.62,-0.67,-0.65,-0.90,1.05,-0.49,-2.30,0.00
21.348,-0.28,0.66,0.68,-0.67,-0.65,-0.90,1.05,-0.49,-2.30,0.00
21.358,-0.28,0.66,0.68,-0.67,-0.65,-0.90,1.56,-0.85,-3.29,0.00
21.359,-0.35,0.63,0.90,-0.67,-0.65,-0.90,1.56,-0.85,-3.29,0.00
21.369,-0.35,0.63,0.90,-0.67,-0.65,-0.90,1.77,-0.97,-3.93,0.00
21.37,-0.40,0.58,1.14,-0.67,-0.65,-0.90,1.77,-0.97,-3.93,0.00
21.378,-0.40,0.58,1.14,-0.67,-0.65,-0.90,1.53,-0.74,-3.94,0.00
21.378,-0.40,0.58,1.14,-2.40,0.72,2.87,1.53,-0.74,-3.94,0.00
21.379,-0.40,0.53,1.33,-2.40,0.72,2.87,1.53,-0.74,-3.94,0.00
21.388,-0.40,0.53,1.33,-2.40,0.72,2.87,0.89,-0.22,-3.24,0.00
21.389,-0.36,0.47,1.39,-2.40,0.72,2.87,0.89,-0.22,-3.24,0.00
21.398,-0.36,0.47,1.39,-2.40,0.72,2.87,0.06,0.41,-2.07,0.00
21.398,-0.31,0.43,1.38,-2.40,0.72,2.87,0.06,0.41,-2.07,0.00
21.41,-0.31,0.43,1.38,-2.40,0.72,2.87,-0.76,0.99,-0.69,0.00
21.411,-0.25,0.41,1.34,-2.40,0.72,2.87,-0.76,0.99,-0.69,0.00
21.425,-0.25,0.41,1.34,-2.40,0.72,2.87,-1.41,1.42,0.64,0.00
21.427,-0.20,0.40,1.29,-2.40,0.72,2.87,-1.41,1.42,0.64,0.00
21.428,-0.20,0.40,1.29,-2.40,0.72,2.87,-1.86,1.68,1.80,0.00
21.429,-0.15,0.39,1.26,-2.40,0.72,2.87,-1.86,1.68,1.80,0.00
21.438,-0.15,0.39,1.26,-2.40,0.72,2.87,-2.13,1.76,2.71,0.00
21.439,-0.15,0.39,1.26,0.46,-0.36,3.66,-2.13,1.76,2.71,0.00
21.439,-0.10,0.38,1.21,0.46,-0.36,3.66,-2.13,1.76,2.71,0.00
21.448,-0.10,0.38,1.21,0.46,-0.36,3.66,-2.23,1.67,3.32,0.00
21.448,-0.04,0.37,1.17,0.46,-0.36,3.66,-2.23,1.67,3.32,0.00
21.458,-0.04,0.37,1.17,0.46,-0.36,3.66,-2.23,1.52,3.80,0.00
21.459,-0.01,0.35,1.15,0.46,-0.36,3.66,-2.23,1.52,3.80,0.00
21.468,-0.01,0.35,1.15,0.46,-0.36,3.66,-2.17,1.31,4.10,0.00
21.469,-0.01,0.34,1.16,0.46,-0.36,3.66,-2.17,1.31,4.10,0.00
21.478,-0.01,0.34,1.16,0.46,-0.36,3.66,-2.07,1.06,4.20,0.00
21.478,-0.05,0.34,1.15,0.46,-0.36,3.66,-2.07,1.06,4.20,0.00
21.495,-0.05,0.34,1.15,0.46,-0.36,3.66,-1.94,0.84,4.08,0.00
21.497,-0.11,0.36,1.15,0.46,-0.36,3.66,-1.94,0.84,4.08,0.00
21.498,-0.11,0.36,1.15,0.46,-0.36,3.66,-1.76,0.69,3.79,0.00
21.498,-0.11,0.36,1.15,0.29,-0.06,2.21,-1.76,0.69,3.79,0.00
21.499,-0.17,0.37,1.11,0.29,-0.06,2.21,-1.76,0.69,3.79,0.00
21.516,-0.17,0.37,1.11,0.29,-0.06,2.21,-1.53,0.58,3.24,0.00
21.518,-0.23,0.39,1.02,0.29,-0.06,2.21,-1.53,0.58,3.24,0.00
21.52,-0.28,0.42,0.90,0.29,-0.06,2.21,-1.53,0.58,3.24,0.00
21.521,-0.28,0.42,0.90,0.29,-0.06,2.21,-1.23,0.51,2.49,0.00
21.528,-0.28,0.42,0.90,0.29,-0.06,2.21,-0.83,0.42,1.48,0.00
21.528,-0.33,0.45,0.80,0.29,-0.06,2.21,-0.83,0.42,1.48,0.00
21.538,-0.33,0.45,0.80,0.29,-0.06,2.21,-0.34,0.29,0.22,0.00
21.539,-0.36,0.47,0.74,0.29,-0.06,2.21,-0.34,0.29,0.22,0.00
21.548,-0.36,0.47,0.74,0.29,-0.06,2.21,0.23,0.08,-1.27,0.00
21.549,-0.36,0.48,0.70,0.29,-0.06,2.21,0.23,0.08,-1.27,0.00
21.558,-0.36,0.48,0.70,0.29,-0.06,2.21,0.81,-0.21,-2.78,0.00
21.559,-0.36,0.48,0.70,-1.88,1.07,-2.10,0.81,-0.21,-2.78,0.00
21.56,-0.34,0.46,0.69,-1.88,1.07,-2.10,0.81,-0.21,-2.78,0.00
21.568,-0.34,0.46,0.69,-1.88,1.07,-2.10,1.34,-0.55,-4.13,0.00
21.569,-0.30,0.44,0.71,-1.88,1.07,-2.10,1.34,-0.55,-4.13,0.00
21.578,-0.30,0.44,0.71,-1.88,1.07,-2.10,1.70,-0.83,-5.00,0.00
21.578,-0.26,0.41,0.73,-1.88,1.07,-2.10,1.70,-0.83,-5.00,0.00
21.593,-0.26,0.41,0.73,-1.88,1.07,-2.10,1.87,-1.03,-5.37,0.00
21.594,-0.23,0.38,0.74,-1.88,1.07,-2.10,1.87,-1.03,-5.37,0.00
21.612,-0.23,0.38,0.74,-1.88,1.07,-2.10,1.85,-1.04,-5.23,0.00
21.613,-0.21,0.34,0.76,-1.88,1.07,-2.10,1.85,-1.04,-5.23,0.00
21.614,-0.21,0.34,0.76,-1.88,1.07,-2.10,1.64,-0.97,-4.61,0.00
21.614,-0.20,0.31,0.77,-1.88,1.07,-2.10,1.64,-0.97,-4.61,0.00
21.618,-0.20,0.31,0.77,-1.88,1.07,-2.10,1.30,-0.79,-3.75,0.00
21.619,-0.20,0.31,0.77,0.25,-0.87,-1.12,1.30,-0.79,-3.75,0.00
21.62,-0.21,0.30,0.78,0.25,-0.87,-1.12,1.30,-0.79,-3.75,0.00
21.628,-0.21,0.30,0.78,0.25,-0.87,-1.12,0.91,-0.53,-2.79,0.00
21.629,-0.22,0.29,0.76,0.25,-0.87,-1.12,0.91,-0.53,-2.79,0.00
21.638,-0.22,0.29,0.76,0.25,-0.87,-1.12,0.55,-0.26,-1.94,0.00
21.639,-0.23,0.28,0.72,0.25,-0.87,-1.12,0.55,-0.26,-1.94,0.00
21.648,-0.23,0.28,0.72,0.25,-0.87,-1.12,0.29,-0.07,-1.36,0.00
21.65,-0.21,0.27,0.68,0.25,-0.87,-1.12,0.29,-0.07,-1.36,0.00
21.658,-0.21,0.27,0.68,0.25,-0.87,-1.12,0.11,0.07,-0.96,0.00
21.658,-0.21,0.26,0.62,0.25,-0.87,-1.12,0.11,0.07,-0.96,0.00
21.668,-0.21,0.26,0.62,0.25,-0.87,-1.12,0.02,0.15,-0.75,0.00
21.669,-0.19,0.24,0.58,0.25,-0.87,-1.12,0.02,0.15,-0.75,0.00
21.678,-0.19,0.24,0.58,0.25,-0.87,-1.12,-0.01,0.17,-0.66,0.00
21.678,-0.19,0.24,0.58,0.63,-1.46,-2.97,-0.01,0.17,-0.66,0.00
21.679,-0.16,0.22,0.57,0.63,-1.46,-2.97,-0.01,0.17,-0.66,0.00
21.693,-0.16,0.22,0.57,0.63,-1.46,-2.97,-0.10,0.24,-0.37,0.00
21.695,-0.13,0.20,0.56,0.63,-1.46,-2.97,-0.10,0.24,-0.37,0.00
21.715,-0.13,0.20,0.56,0.63,-1.46,-2.97,-0.30,0.38,0.21,0.00
21.717,-0.09,0.17,0.56,0.63,-1.46,-2.97,-0.30,0.38,0.21,0.00
21.717,-0.09,0.17,0.56,0.63,-1.46,-2.97,-0.64,0.63,1.17,0.00
21.718,-0.06,0.14,0.55,0.63,-1.46,-2.97,-0.64,0.63,1.17,0.00
21.719,-0.03,0.13,0.52,0.63,-1.46,-2.97,-0.64,0.63,1.17,0.00
21.72,-0.03,0.13,0.52,0.63,-1.46,-2.97,-1.14,0.98,2.53,0.00
21.728,-0.03,0.13,0.52,0.63,-1.46,-2.97,-1.57,1.23,3.76,0.00
21.732,-0.00,0.13,0.49,0.63,-1.46,-2.97,-1.57,1.23,3.76,0.00
21.738,-0.00,0.13,0.49,0.63,-1.46,-2.97,-1.86,1.35,4.73,0.00
21.738,-0.00,0.13,0.49,2.24,-2.26,-4.07,-1.86,1.35,4.73,0.00
21.739,0.01,0.13,0.51,2.24,-2.26,-4.07,-1.86,1.35,4.73,0.00
21.749,0.01,0.13,0.51,2.24,-2.26,-4.07,-2.07,1.38,5.53,0.00
21.75,0.04,0.13,0.55,2.24,-2.26,-4.07,-2.07,1.38,5.53,0.00
21.758,0.04,0.13,0.55,2.24,-2.26,-4.07,-2.22,1.31,6.20,0.00
21.758,0.07,0.13,0.58,2.24,-2.26,-4.07,-2.22,1.31,6.20,0.00
21.768,0.07,0.13,0.58,2.24,-2.26,-4.07,-2.28,1.09,6.55,0.00
21.769,0.10,0.15,0.60,2.24,-2.26,-4.07,-2.28,1.09,6.55,0.00
21.778,0.10,0.15,0.60,2.24,-2.26,-4.07,-2.21,0.69,6.51,0.00
21.778,0.13,0.22,0.57,2.24,-2.26,-4.07,-2.21,0.69,6.51,0.00
21.791,0.13,0.22,0.57,2.24,-2.26,-4.07,-1.83,0.02,5.70,0.00
21.792,0.11,0.29,0.59,2.24,-2.26,-4.07,-1.83,0.02,5.70,0.00
21.809,0.11,0.29,0.59,2.24,-2.26,-4.07,-1.22,-0.76,4.28,0.00
21.81,0.11,0.29,0.59,2.13,-0.37,-3.45,-1.22,-0.76,4.28,0.00
21.811,0.02,0.35,0.80,2.13,-0.37,-3.45,-1.22,-0.76,4.28,0.00
21.811,0.02,0.35,0.80,2.13,-0.37,-3.45,-0.68,-1.25,2.98,0.00
21.812,-0.10,0.36,1.07,2.13,-0.37,-3.45,-0.68,-1.25,2.98,0.00
21.818,-0.10,0.36,1.07,2.13,-0.37,-3.45,-0.43,-1.21,2.19,0.00
21.819,-0.20,0.35,1.26,2.13,-0.37,-3.45,-0.43,-1.21,2.19,0.00
21.828,-0.20,0.35,1.26,2.13,-0.37,-3.45,-0.46,-0.71,1.94,0.00
21.829,-0.30,0.36,1.41,2.13,-0.37,-3.45,-0.46,-0.71,1.94,0.00
21.838,-0.30,0.36,1.41,2.13,-0.37,-3.45,-0.65,0.02,1.99,0.00
21.839,-0.38,0.39,1.54,2.13,-0.37,-3.45,-0.65,0.02,1.99,0.00
21.848,-0.38,0.39,1.54,2.13,-0.37,-3.45,-0.87,0.79,2.18,0.00
21.849,-0.42,0.39,1.60,2.13,-0.37,-3.45,-0.87,0.79,2.18,0.00
21.858,-0.42,0.39,1.60,2.13,-0.37,-3.45,-1.05,1.45,2.44,0.00
21.858,-0.42,0.39,1.60,-3.03,0.90,6.35,-1.05,1.45,2.44,0.00
21.859,-0.42,0.40,1.61,-3.03,0.90,6.35,-1.05,1.45,2.44,0.00
21.868,-0.42,0.40,1.61,-3.03,0.90,6.35,-1.16,1.87,2.58,0.00
21.868,-0.40,0.41,1.60,-3.03,0.90,6.35,-1.16,1.87,2.58,0.00
21.878,-0.40,0.41,1.60,-3.03,0.90,6.35,-1.18,2.05,2.62,0.00
21.878,-0.36,0.41,1.54,-3.03,0.90,6.35,-1.18,2.05,2.62,0.00
21.889,-0.36,0.41,1.54,-3.03,0.90,6.35,-1.11,2.01,2.49,0.00
21.892,-0.29,0.40,1.48,-3.03,0.90,6.35,-1.11,2.01,2.49,0.00
21.908,-0.29,0.40,1.48,-3.03,0.90,6.35,-0.97,1.77,2.17,0.00
21.909,-0.20,0.36,1.43,-3.03,0.90,6.35,-0.97,1.77,2.17,0.00
21.91,-0.20,0.36,1.43,-3.03,0.90,6.35,-0.85,1.39,1.83,0.00
21.91,-0.10,0.33,1.37,-3.03,0.90,6.35,-0.85,1.39,1.83,0.00
21.919,-0.01,0.30,1.30,-3.03,0.90,6.35,-0.85,1.39,1.83,0.00
21.92,-0.01,0.30,1.30,-3.03,0.90,6.35,-0.75,0.94,1.54,0.00
21.92,-0.01,0.30,1.30,0.59,0.57,4.07,-0.75,0.94,1.54,0.00
21.928,-0.01,0.30,1.30,0.59,0.57,4.07,-0.68,0.47,1.33,0.00
21.931,0.03,0.29,1.23,0.59,0.57,4.07,-0.68,0.47,1.33,0.00
21.938,0.03,0.29,1.23,0.59,0.57,4.07,-0.60,0.01,1.09,0.00
21.939,0.03,0.30,1.21,0.59,0.57,4.07,-0.60,0.01,1.09,0.00
21.948,0.03,0.30,1.21,0.59,0.57,4.07,-0.50,-0.38,0.78,0.00
21.952,-0.01,0.33,1.25,0.59,0.57,4.07,-0.50,-0.38,0.78,0.00
21.958,-0.01,0.33,1.25,0.59,0.57,4.07,-0.39,-0.62,0.53,0.00
21.959,-0.09,0.36,1.28,0.59,0.57,4.07,-0.39,-0.62,0.53,0.00
21.968,-0.09,0.36,1.28,0.59,0.57,4.07,-0.25,-0.74,0.18,0.00
21.969,-0.16,0.39,1.29,0.59,0.57,4.07,-0.25,-0.74,0.18,0.00
21.978,-0.16,0.39,1.29,0.59,0.57,4.07,-0.10,-0.73,-0.17,0.00
21.978,-0.16,0.39,1.29,-0.44,1.33,3.27,-0.10,-0.73,-0.17,0.00
21.979,-0.21,0.42,1.27,-0.44,1.33,3.27,-0.10,-0.73,-0.17,0.00
21.989,-0.21,0.42,1.27,-0.44,1.33,3.27,0.06,-0.63,-0.53,0.00
21.991,-0.23,0.42,1.22,-0.44,1.33,3.27,0.06,-0.63,-0.53,0.00
22.005,-0.23,0.42,1.22,-0.44,1.33,3.27,0.23,-0.50,-0.91,0.00
22.007,-0.22,0.40,1.17,-0.44,1.33,3.27,0.23,-0.50,-0.91,0.00
22.008,-0.22,0.40,1.17,-0.44,1.33,3.27,0.35,-0.36,-1.13,0.00
22.009,-0.20,0.37,1.12,-0.44,1.33,3.27,0.35,-0.36,-1.13,0.00
22.018,-0.20,0.37,1.12,-0.44,1.33,3.27,0.42,-0.26,-1.28,0.00
22.019,-0.16,0.33,1.06,-0.44,1.33,3.27,0.42,-0.26,-1.28,0.00
22.029,-0.16,0.33,1.06,-0.44,1.33,3.27,0.45,-0.24,-1.38,0.00
22.03,-0.11,0.31,0.97,-0.44,1.33,3.27,0.45,-0.24,-1.38,0.00
22.038,-0.11,0.31,0.97,-0.44,1.33,3.27,0.45,-0.27,-1.42,0.00
22.038,-0.11,0.31,0.97,0.11,0.32,0.10,0.45,-0.27,-1.42,0.00
22.039,-0.07,0.28,0.86,0.11,0.32,0.10,0.45,-0.27,-1.42,0.00
22.048,-0.07,0.28,0.86,0.11,0.32,0.10,0.45,-0.35,-1.45,0.00
22.049,-0.02,0.26,0.76,0.11,0.32,0.10,0.45,-0.35,-1.45,0.00
22.058,-0.02,0.26,0.76,0.11,0.32,0.10,0.44,-0.46,-1.40,0.00
22.058,0.01,0.25,0.69,0.11,0.32,0.10,0.44,-0.46,-1.40,0.00
22.092,0.01,0.25,0.69,0.11,0.32,0.10,0.46,-0.63,-1.48,0.00
22.097,0.01,0.25,0.69,0.11,0.32,0.10,0.46,-0.63,-1.48,0.00
22.098,0.00,0.26,0.65,0.11,0.32,0.10,0.46,-0.63,-1.48,0.00
22.099,0.00,0.26,0.65,0.11,0.32,0.10,0.51,-0.79,-1.63,0.00
22.1,0.00,0.26,0.65,1.05,-0.24,-2.96,0.51,-0.79,-1.63,0.00
22.135,-0.29,0.41,0.64,1.05,-0.24,-2.96,0.51,-0.79,-1.63,0.00
22.154,-0.29,0.41,0.64,1.05,-0.24,-2.96,2.20,-1.80,-7.75,0.00
22.155,-0.29,0.41,0.64,-1.18,0.64,-1.10,2.20,-1.80,-7.75,0.00
22.212,-0.32,0.50,1.30,-1.18,0.64,-1.10,2.20,-1.80,-7.75,0.00
22.222,-0.32,0.50,1.30,-1.18,0.64,-1.10,2.06,-2.03,-7.44,0.00
22.223,-0.32,0.50,1.30,-1.24,1.02,3.94,2.06,-2.03,-7.44,0.00
22.267,-0.09,0.34,1.54,-1.24,1.02,3.94,2.06,-2.03,-7.44,0.00
22.288,-0.09,0.34,1.54,-1.24,1.02,3.94,-2.17,1.40,5.24,0.00
22.302,-0.09,0.34,1.54,0.83,0.17,5.97,-2.17,1.40,5.24,0.00
22.334,-0.04,0.41,1.09,0.83,0.17,5.97,-2.17,1.40,5.24,0.00
22.352,-0.04,0.41,1.09,0.83,0.17,5.97,-0.27,-0.86,0.74,0.00
22.353,-0.04,0.41,1.09,0.61,0.95,1.42,-0.27,-0.86,0.74,0.00
22.399,-0.58,0.54,0.97,0.61,0.95,1.42,-0.27,-0.86,0.74,0.00
22.42,-0.58,0.54,0.97,0.61,0.95,1.42,0.80,-1.87,-5.83,0.00
22.428,-0.58,0.54,0.97,-3.89,1.69,-1.45,0.80,-1.87,-5.83,0.00
22.465,-0.46,0.37,0.65,-3.89,1.69,-1.45,0.80,-1.87,-5.83,0.00
22.489,-0.46,0.37,0.65,-3.89,1.69,-1.45,2.44,-0.83,-6.62,0.00
22.503,-0.46,0.37,0.65,-0.76,-1.03,-1.41,2.44,-0.83,-6.62,0.00
22.531,-0.22,0.13,0.79,-0.76,-1.03,-1.41,2.44,-0.83,-6.62,0.00
22.55,-0.22,0.13,0.79,-0.76,-1.03,-1.41,0.55,-1.19,-3.99,0.00
22.551,-0.22,0.13,0.79,1.57,-2.04,-0.70,0.55,-1.19,-3.99,0.00
22.597,0.07,0.07,0.92,1.57,-2.04,-0.70,0.55,-1.19,-3.99,0.00
22.628,0.07,0.07,0.92,1.57,-2.04,-0.70,-0.91,-3.34,-2.31,0.00
22.63,0.07,0.07,0.92,3.13,-0.99,-0.58,-0.91,-3.34,-2.31,0.00
22.663,0.05,0.30,0.82,3.13,-0.99,-0.58,-0.91,-3.34,-2.31,0.00
22.682,0.05,0.30,0.82,3.13,-0.99,-0.58,-1.67,1.34,16.24,0.00
22.683,0.05,0.30,0.82,1.95,1.42,-1.97,-1.67,1.34,16.24,0.00
22.729,0.18,0.48,0.79,1.95,1.42,-1.97,-1.67,1.34,16.24,0.00
22.748,0.18,0.48,0.79,1.95,1.42,-1.97,1.65,0.18,7.55,0.00
22.749,0.18,0.48,0.79,1.31,1.22,-1.38,1.65,0.18,7.55,0.00
22.798,0.07,0.39,1.44,1.31,1.22,-1.38,1.65,0.18,7.55,0.00
22.816,0.07,0.39,1.44,1.31,1.22,-1.38,-0.45,-0.20,-0.08,0.00
22.818,0.07,0.39,1.44,-0.74,0.35,4.40,-0.45,-0.20,-0.08,0.00
22.861,-0.03,0.42,1.05,-0.74,0.35,4.40,-0.45,-0.20,-0.08,0.00
22.88,-0.03,0.42,1.05,-0.74,0.35,4.40,-0.20,-0.24,-2.42,0.00
22.881,-0.03,0.42,1.05,-1.15,1.06,-0.24,-0.20,-0.24,-2.42,0.00
22.927,-0.17,0.49,0.98,-1.15,1.06,-0.24,-0.20,-0.24,-2.42,0.00
22.946,-0.17,0.49,0.98,-1.15,1.06,-0.24,0.60,0.04,-3.19,0.00
22.947,-0.17,0.49,0.98,-1.67,0.79,0.85,0.60,0.04,-3.19,0.00
22.993,-0.19,0.38,0.95,-1.67,0.79,0.85,0.60,0.04,-3.19,0.00
23.015,-0.19,0.38,0.95,-1.67,0.79,0.85,0.26,0.24,-2.31,0.00
23.017,-0.19,0.38,0.95,-0.23,-0.67,-0.17,0.26,0.24,-2.31,0.00
23.059,-0.00,0.26,0.78,-0.23,-0.67,-0.17,0.26,0.24,-2.31,0.00
23.078,-0.00,0.26,0.78,-0.23,-0.67,-0.17,-0.51,0.01,0.63,0.00
23.079,-0.00,0.26,0.78,1.45,-1.11,-1.67,-0.51,0.01,0.63,0.00
23.131,-0.06,0.33,0.96,1.45,-1.11,-1.67,-0.51,0.01,0.63,0.00
23.145,-0.06,0.33,0.96,1.45,-1.11,-1.67,-0.45,0.01,1.30,0.00
23.146,-0.06,0.33,0.96,-0.33,0.28,0.13,-0.45,0.01,1.30,0.00
23.191,0.02,0.36,0.95,-0.33,0.28,0.13,-0.45,0.01,1.30,0.00
23.224,0.02,0.36,0.95,-0.33,0.28,0.13,-0.05,0.13,1.16,0.00
23.225,0.02,0.36,0.95,0.98,-0.03,0.25,-0.05,0.13,1.16,0.00
23.257,0.04,0.38,1.10,0.98,-0.03,0.25,-0.05,0.13,1.16,0.00
23.276,0.04,0.38,1.10,0.98,-0.03,0.25,-0.29,0.01,2.13,0.00
23.277,0.04,0.38,1.10,0.53,-0.06,3.10,-0.29,0.01,2.13,0.00
23.328,-0.02,0.30,1.24,0.53,-0.06,3.10,-0.29,0.01,2.13,0.00
23.342,-0.02,0.30,1.24,0.53,-0.06,3.10,-0.86,0.22,1.18,0.00
23.344,-0.02,0.30,1.24,-0.47,-0.39,1.99,-0.86,0.22,1.18,0.00
23.389,-0.02,0.23,1.00,-0.47,-0.39,1.99,-0.86,0.22,1.18,0.00
23.41,-0.02,0.23,1.00,-0.47,-0.39,1.99,-0.57,0.32,0.14,0.00
23.412,-0.02,0.23,1.00,-0.67,-0.23,0.90,-0.57,0.32,0.14,0.00
23.455,-0.23,0.22,1.49,-0.67,-0.23,0.90,-0.57,0.32,0.14,0.00
23.474,-0.23,0.22,1.49,-0.67,-0.23,0.90,-0.65,0.55,-1.67,0.00
23.475,-0.23,0.22,1.49,-1.15,0.31,1.35,-0.65,0.55,-1.67,0.00
23.522,-0.11,0.22,0.88,-1.15,0.31,1.35,-0.65,0.55,-1.67,0.00
23.542,-0.11,0.22,0.88,-1.15,0.31,1.35,0.07,0.34,-1.07,0.00
23.545,-0.11,0.22,0.88,-0.11,0.02,-0.74,0.07,0.34,-1.07,0.00
23.587,-0.26,0.27,0.72,-0.11,0.02,-0.74,0.07,0.34,-1.07,0.00
23.607,-0.26,0.27,0.72,-0.11,0.02,-0.74,0.87,0.58,-1.90,0.00
23.608,-0.26,0.27,0.72,-0.85,0.18,-3.08,0.87,0.58,-1.90,0.00
23.654,-0.13,0.22,0.71,-0.85,0.18,-3.08,0.87,0.58,-1.90,0.00
23.672,-0.13,0.22,0.71,-0.85,0.18,-3.08,0.47,0.32,-0.45,0.00
23.673,-0.13,0.22,0.71,0.71,-0.52,-2.30,0.47,0.32,-0.45,0.00
23.719,-0.13,0.29,0.78,0.71,-0.52,-2.30,0.47,0.32,-0.45,0.00
23.738,-0.13,0.29,0.78,0.71,-0.52,-2.30,0.33,0.06,0.90,0.00
23.741,-0.13,0.29,0.78,0.75,0.14,-1.33,0.33,0.06,0.90,0.00
23.785,-0.04,0.37,0.79,0.75,0.14,-1.33,0.33,0.06,0.90,0.00
23.805,-0.04,0.37,0.79,0.75,0.14,-1.33,0.48,-0.28,2.39,0.00
23.806,-0.04,0.37,0.79,1.59,0.33,-1.04,0.48,-0.28,2.39,0.00
23.851,0.23,0.47,1.12,1.59,0.33,-1.04,0.48,-0.28,2.39,0.00
23.87,0.23,0.47,1.12,1.59,0.33,-1.04,0.24,-0.81,3.83,0.00
23.871,0.23,0.47,1.12,2.27,0.71,1.95,0.24,-0.81,3.83,0.00
23.917,0.08,0.58,1.47,2.27,0.71,1.95,0.24,-0.81,3.83,0.00
23.936,0.08,0.58,1.47,2.27,0.71,1.95,-0.19,-0.15,1.24,0.00
23.939,0.08,0.58,1.47,-0.12,1.98,5.25,-0.19,-0.15,1.24,0.00
23.983,0.20,0.52,1.24,-0.12,1.98,5.25,-0.19,-0.15,1.24,0.00
24.004,0.20,0.52,1.24,-0.12,1.98,5.25,0.07,-0.20,0.62,0.00
24.005,0.20,0.52,1.24,0.10,1.79,3.46,0.07,-0.20,0.62,0.00
24.049,-0.12,0.50,1.32,0.10,1.79,3.46,0.07,-0.20,0.62,0.00
24.068,-0.12,0.50,1.32,0.10,1.79,3.46,-0.02,0.34,-1.45,0.00
24.069,-0.12,0.50,1.32,-1.51,0.84,1.04,-0.02,0.34,-1.45,0.00
24.121,0.06,0.33,0.77,-1.51,0.84,1.04,-0.02,0.34,-1.45,0.00
24.134,0.06,0.33,0.77,-1.51,0.84,1.04,0.18,-0.12,-0.54,0.00
24.135,0.06,0.33,0.77,0.48,-0.76,-0.72,0.18,-0.12,-0.54,0.00
24.181,-0.01,0.42,0.60,0.48,-0.76,-0.72,0.18,-0.12,-0.54,0.00
24.201,-0.01,0.42,0.60,0.48,-0.76,-0.72,0.69,-0.22,-0.67,0.00
24.202,-0.01,0.42,0.60,-0.78,0.55,-2.79,0.69,-0.22,-0.67,0.00
24.247,-0.04,0.40,0.80,-0.78,0.55,-2.79,0.69,-0.22,-0.67,0.00
24.266,-0.04,0.40,0.80,-0.78,0.55,-2.79,0.28,-0.07,-0.74,0.00
24.267,-0.04,0.40,0.80,0.22,-0.86,-0.58,0.28,-0.07,-0.74,0.00
24.321,0.17,0.34,0.80,0.22,-0.86,-0.58,0.28,-0.07,-0.74,0.00
24.332,0.17,0.34,0.80,0.22,-0.86,-0.58,-0.47,-0.39,1.67,0.00
24.333,0.17,0.34,0.80,1.19,-0.93,-1.01,-0.47,-0.39,1.67,0.00
24.379,0.08,0.43,0.94,1.19,-0.93,-1.01,-0.47,-0.39,1.67,0.00
24.4,0.08,0.43,0.94,1.19,-0.93,-1.01,-0.17,-0.15,0.44,0.00
24.401,0.08,0.43,0.94,-0.20,0.11,1.21,-0.17,-0.15,0.44,0.00
24.445,-0.07,0.41,1.14,-0.20,0.11,1.21,-0.17,-0.15,0.44,0.00
24.464,-0.07,0.41,1.14,-0.20,0.11,1.21,-0.46,0.30,-1.43,0.00
24.466,-0.07,0.41,1.14,-1.15,0.40,1.24,-0.46,0.30,-1.43,0.00
24.528,-0.09,0.46,0.94,-1.15,0.40,1.24,-0.46,0.30,-1.43,0.00
24.533,-0.09,0.46,0.94,-1.15,0.40,1.24,0.09,0.21,-1.71,0.00
24.536,-0.09,0.46,0.94,-0.93,0.43,1.39,0.09,0.21,-1.71,0.00
24.577,-0.09,0.28,0.96,-0.93,0.43,1.39,0.09,0.21,-1.71,0.00
24.597,-0.09,0.28,0.96,-0.93,0.43,1.39,-0.62,0.11,-1.09,0.00
24.598,-0.09,0.28,0.96,-0.14,-0.82,-2.04,-0.62,0.11,-1.09,0.00
24.644,-0.01,0.22,0.64,-0.14,-0.82,-2.04,-0.62,0.11,-1.09,0.00
24.662,-0.01,0.22,0.64,-0.14,-0.82,-2.04,-0.15,-0.03,-0.31,0.00
24.663,-0.01,0.22,0.64,0.04,-1.22,-3.73,-0.15,-0.03,-0.31,0.00
24.721,-0.27,0.35,0.43,0.04,-1.22,-3.73,-0.15,-0.03,-0.31,0.00
24.732,-0.27,0.35,0.43,0.04,-1.22,-3.73,1.64,0.69,-3.17,0.00
24.733,-0.27,0.35,0.43,-1.11,-0.44,-3.64,1.64,0.69,-3.17,0.00
24.775,-0.02,0.33,0.77,-1.11,-0.44,-3.64,1.64,0.69,-3.17,0.00
24.797,-0.02,0.33,0.77,-1.11,-0.44,-3.64,0.00,-0.03,0.15,0.00
24.798,-0.02,0.33,0.77,1.57,0.01,-1.61,0.00,-0.03,0.15,0.00
24.841,-0.06,0.53,0.93,1.57,0.01,-1.61,0.00,-0.03,0.15,0.00
24.86,-0.06,0.53,0.93,1.57,0.01,-1.61,0.39,-0.20,1.66,0.00
24.862,-0.06,0.53,0.93,0.45,1.04,0.95,0.39,-0.20,1.66,0.00
24.921,-0.09,0.56,0.97,0.45,1.04,0.95,0.39,-0.20,1.66,0.00
24.926,-0.09,0.56,0.97,0.45,1.04,0.95,0.24,-0.07,0.65,0.00
24.927,-0.09,0.56,0.97,0.14,0.60,1.24,0.24,-0.07,0.65,0.00
24.973,-0.11,0.51,1.12,0.14,0.60,1.24,0.24,-0.07,0.65,0.00
24.994,-0.11,0.51,1.12,0.14,0.60,1.24,-0.26,-0.02,0.17,0.00
24.995,-0.11,0.51,1.12,0.48,-0.20,2.85,-0.26,-0.02,0.17,0.00
25.039,0.19,0.34,1.07,0.48,-0.20,2.85,-0.26,-0.02,0.17,0.00
25.058,0.19,0.34,1.07,0.48,-0.20,2.85,-1.11,-0.45,2.20,0.00
25.059,0.19,0.34,1.07,2.67,-0.66,0.12,-1.11,-0.45,2.20,0.00
25.119,0.13,0.48,0.90,2.67,-0.66,0.12,-1.11,-0.45,2.20,0.00
25.128,0.13,0.48,0.90,2.67,-0.66,0.12,0.25,-0.39,1.03,0.00
25.128,0.13,0.48,0.90,-0.50,1.29,1.09,0.25,-0.39,1.03,0.00
25.171,-0.08,0.53,1.15,-0.50,1.29,1.09,0.25,-0.39,1.03,0.00
25.194,-0.08,0.53,1.15,-0.50,1.29,1.09,0.15,0.13,-1.26,0.00
25.195,-0.08,0.53,1.15,-0.97,0.88,1.76,0.15,0.13,-1.26,0.00
25.24,0.15,0.41,0.89,-0.97,0.88,1.76,0.15,0.13,-1.26,0.00
25.257,0.15,0.41,0.89,-0.97,0.88,1.76,0.05,-0.25,0.25,0.00
25.259,0.15,0.41,0.89,1.07,-0.12,-0.16,0.05,-0.25,0.25,0.00
25.319,0.00,0.47,0.91,1.07,-0.12,-0.16,0.05,-0.25,0.25,0.00
25.323,0.00,0.47,0.91,1.07,-0.12,-0.16,0.19,-0.14,-0.15,0.00
25.324,0.00,0.47,0.91,-0.20,0.08,-0.03,0.19,-0.14,-0.15,0.00
25.369,0.09,0.43,0.77,-0.20,0.08,-0.03,0.19,-0.14,-0.15,0.00
25.389,0.09,0.43,0.77,-0.20,0.08,-0.03,0.28,-0.20,0.18,0.00
25.391,0.09,0.43,0.77,0.79,-0.15,-1.06,0.28,-0.20,0.18,0.00
25.437,0.23,0.46,0.94,0.79,-0.15,-1.06,0.28,-0.20,0.18,0.00
25.458,0.23,0.46,0.94,0.79,-0.15,-1.06,0.14,-0.44,1.29,0.00
25.465,0.23,0.46,0.94,1.00,0.10,0.53,0.14,-0.44,1.29,0.00
25.501,0.13,0.47,0.91,1.00,0.10,0.53,0.14,-0.44,1.29,0.00
25.521,0.13,0.47,0.91,1.00,0.10,0.53,0.06,-0.19,0.27,0.00
25.527,0.13,0.47,0.91,-0.20,0.20,0.23,0.06,-0.19,0.27,0.00
25.567,0.03,0.39,0.97,-0.20,0.20,0.23,0.06,-0.19,0.27,0.00
25.587,0.03,0.39,0.97,-0.20,0.20,0.23,-0.58,0.24,-1.15,0.00
25.589,0.03,0.39,0.97,-1.33,-0.27,1.30,-0.58,0.24,-1.15,0.00
25.633,0.04,0.39,0.92,-1.33,-0.27,1.30,-0.58,0.24,-1.15,0.00
25.656,0.04,0.39,0.92,-1.33,-0.27,1.30,-0.34,0.13,-0.99,0.00
25.662,0.04,0.39,0.92,-0.04,-0.13,-0.81,-0.34,0.13,-0.99,0.00
25.699,-0.08,0.31,1.15,-0.04,-0.13,-0.81,-0.34,0.13,-0.99,0.00
25.719,-0.08,0.31,1.15,-0.04,-0.13,-0.81,-0.76,0.23,-1.17,0.00
25.721,-0.08,0.31,1.15,-1.14,-0.71,2.27,-0.76,0.23,-1.17,0.00
25.765,-0.14,0.32,0.75,-1.14,-0.71,2.27,-0.76,0.23,-1.17,0.00
25.786,-0.14,0.32,0.75,-1.14,-0.71,2.27,-0.25,0.35,-2.02,0.00
25.787,-0.14,0.32,0.75,-0.00,-0.82,-0.70,-0.25,0.35,-2.02,0.00
25.834,-0.00,0.23,0.83,-0.00,-0.82,-0.70,-0.25,0.35,-2.02,0.00
25.85,-0.00,0.23,0.83,-0.00,-0.82,-0.70,-0.58,-0.04,-0.37,0.00
25.853,-0.00,0.23,0.83,-1.11,-0.10,-1.42,-0.58,-0.04,-0.37,0.00
25.897,-0.21,0.35,0.70,-1.11,-0.10,-1.42,-0.58,-0.04,-0.37,0.00
25.918,-0.21,0.35,0.70,-1.11,-0.10,-1.42,0.74,0.68,-1.90,0.00
25.919,-0.21,0.35,0.70,-0.79,-0.09,-2.18,0.74,0.68,-1.90,0.00
25.963,-0.10,0.33,0.66,-0.79,-0.09,-2.18,0.74,0.68,-1.90,0.00
25.984,-0.10,0.33,0.66,-0.79,-0.09,-2.18,0.53,0.30,-0.44,0.00
25.985,-0.10,0.33,0.66,0.36,-0.19,-2.12,0.53,0.30,-0.44,0.00
26.032,-0.15,0.47,0.84,0.36,-0.19,-2.12,0.53,0.30,-0.44,0.00
26.05,-0.15,0.47,0.84,0.36,-0.19,-2.12,0.57,0.22,0.43,0.00
26.053,-0.15,0.47,0.84,0.34,0.47,0.38,0.57,0.22,0.43,0.00
26.095,0.09,0.46,1.02,0.34,0.47,0.38,0.57,0.22,0.43,0.00
26.118,0.09,0.46,1.02,0.34,0.47,0.38,-0.43,-0.47,2.23,0.00
26.119,0.09,0.46,1.02,1.69,0.31,1.18,-0.43,-0.47,2.23,0.00
26.161,0.15,0.42,1.25,1.69,0.31,1.18,-0.43,-0.47,2.23,0.00
26.182,0.15,0.42,1.25,1.69,0.31,1.18,-0.47,-0.49,2.17,0.00
26.183,0.15,0.42,1.25,1.40,0.09,3.29,-0.47,-0.49,2.17,0.00
26.227,0.12,0.43,0.99,1.40,0.09,3.29,-0.47,-0.49,2.17,0.00
26.247,0.12,0.43,0.99,1.40,0.09,3.29,-0.40,-0.35,1.49,0.00
26.252,0.12,0.43,0.99,0.46,0.55,0.61,-0.40,-0.35,1.49,0.00
26.293,-0.10,0.49,1.12,0.46,0.55,0.61,-0.40,-0.35,1.49,0.00
26.312,-0.10,0.49,1.12,0.46,0.55,0.61,0.14,0.37,-1.02,0.00
26.313,-0.10,0.49,1.12,0.47,-0.32,1.79,0.14,0.37,-1.02,0.00
26.359,0.15,0.34,0.89,0.47,-0.32,1.79,0.14,0.37,-1.02,0.00
26.379,0.15,0.34,0.89,0.47,-0.32,1.79,-0.43,-0.32,1.30,0.00
26.381,0.15,0.34,0.89,0.82,-0.24,-0.36,-0.43,-0.32,1.30,0.00
26.425,0.05,0.44,0.80,0.82,-0.24,-0.36,-0.43,-0.32,1.30,0.00
26.444,0.05,0.44,0.80,0.82,-0.24,-0.36,0.56,-0.08,0.05,0.00
26.446,0.05,0.44,0.80,-0.20,0.59,-1.17,0.56,-0.08,0.05,0.00
26.491,0.07,0.38,0.91,-0.20,0.59,-1.17,0.56,-0.08,0.05,0.00
26.51,0.07,0.38,0.91,-0.20,0.59,-1.17,0.13,-0.04,0.04,0.00
26.511,0.07,0.38,0.91,-0.76,0.30,-0.86,0.13,-0.04,0.04,0.00
26.557,0.07,0.41,0.89,-0.76,0.30,-0.86,0.13,-0.04,0.04,0.00
26.578,0.07,0.41,0.89,-0.76,0.30,-0.86,0.14,0.04,-0.24,0.00
26.578,0.07,0.41,0.89,0.02,-0.09,-0.22,0.14,0.04,-0.24,0.00
26.626,0.07,0.41,1.01,0.02,-0.09,-0.22,0.14,0.04,-0.24,0.00
26.644,0.07,0.41,1.01,0.02,-0.09,-0.22,-0.25,-0.03,0.13,0.00
26.645,0.07,0.41,1.01,-0.02,0.10,0.99,-0.25,-0.03,0.13,0.00
26.689,-0.01,0.43,1.04,-0.02,0.10,0.99,-0.25,-0.03,0.13,0.00
26.708,-0.01,0.43,1.04,-0.02,0.10,0.99,-0.19,0.20,-0.79,0.00
26.709,-0.01,0.43,1.04,-0.09,0.22,2.10,-0.19,0.20,-0.79,0.00
26.755,0.00,0.42,1.32,-0.09,0.22,2.10,-0.19,0.20,-0.79,0.00
26.775,0.00,0.42,1.32,-0.09,0.22,2.10,-0.56,0.15,-0.54,0.00
26.777,0.00,0.42,1.32,-0.35,0.63,2.33,-0.56,0.15,-0.54,0.00
26.828,-0.09,0.36,1.11,-0.35,0.63,2.33,-0.56,0.15,-0.54,0.00
26.867,-0.09,0.36,1.11,-0.35,0.63,2.33,-0.16,0.28,-1.10,0.00
26.871,-0.09,0.36,1.11,-0.67,0.13,1.73,-0.16,0.28,-1.10,0.00
26.887,0.02,0.28,0.77,-0.67,0.13,1.73,-0.16,0.28,-1.10,0.00
26.908,0.02,0.28,0.77,-0.67,0.13,1.73,-0.10,-0.05,0.07,0.00
26.909,0.02,0.28,0.77,0.23,-0.07,-2.74,-0.10,-0.05,0.07,0.00
26.953,0.02,0.33,0.63,0.23,-0.07,-2.74,-0.10,-0.05,0.07,0.00
26.974,0.02,0.33,0.63,0.23,-0.07,-2.74,0.68,-0.10,0.30,0.00
26.975,0.02,0.33,0.63,0.19,-0.48,-3.49,0.68,-0.10,0.30,0.00
27.023,-0.06,0.33,0.73,0.19,-0.48,-3.49,0.68,-0.10,0.30,0.00
27.052,-0.06,0.33,0.73,0.19,-0.48,-3.49,0.54,-0.00,0.04,0.00
27.054,-0.06,0.33,0.73,-0.50,-0.72,-1.77,0.54,-0.00,0.04,0.00
27.085,-0.18,0.55,0.67,-0.50,-0.72,-1.77,0.54,-0.00,0.04,0.00
27.104,-0.18,0.55,0.67,-0.50,-0.72,-1.77,1.54,0.55,-1.43,0.00
27.105,-0.18,0.55,0.67,-0.50,0.70,-1.54,1.54,0.55,-1.43,0.00
27.151,-0.02,0.50,0.78,-0.50,0.70,-1.54,1.54,0.55,-1.43,0.00
27.171,-0.02,0.50,0.78,-0.50,0.70,-1.54,0.63,0.02,0.30,0.00
27.173,-0.02,0.50,0.78,1.14,-0.50,-0.18,0.63,0.02,0.30,0.00
27.22,0.03,0.46,1.20,1.14,-0.50,-0.18,0.63,0.02,0.30,0.00
27.251,0.03,0.46,1.20,1.14,-0.50,-0.18,-0.94,-0.33,1.10,0.00
27.254,0.03,0.46,1.20,0.66,-0.34,3.28,-0.94,-0.33,1.10,0.00
27.283,-0.02,0.58,0.98,0.66,-0.34,3.28,-0.94,-0.33,1.10,0.00
27.302,-0.02,0.58,0.98,0.66,-0.34,3.28,-0.53,-0.06,0.27,0.00
27.303,-0.02,0.58,0.98,0.02,1.33,0.83,-0.53,-0.06,0.27,0.00
27.349,0.08,0.50,0.95,0.02,1.33,0.83,-0.53,-0.06,0.27,0.00
27.369,0.08,0.50,0.95,0.02,1.33,0.83,0.19,-0.18,0.74,0.00
27.371,0.08,0.50,0.95,0.30,-0.08,1.84,0.19,-0.18,0.74,0.00
27.418,0.13,0.39,0.92,0.30,-0.08,1.84,0.19,-0.18,0.74,0.00
27.447,0.13,0.39,0.92,0.30,-0.08,1.84,-0.40,-0.21,0.95,0.00
27.449,0.13,0.39,0.92,1.38,-0.46,-1.38,-0.40,-0.21,0.95,0.00
27.481,0.09,0.43,0.66,1.38,-0.46,-1.38,-0.40,-0.21,0.95,0.00
27.5,0.09,0.43,0.66,1.38,-0.46,-1.38,0.44,-0.29,0.88,0.00
27.501,0.09,0.43,0.66,-0.10,-0.26,-2.23,0.44,-0.29,0.88,0.00
27.547,-0.01,0.43,0.65,-0.10,-0.26,-2.23,0.44,-0.29,0.88,0.00
27.568,-0.01,0.43,0.65,-0.10,-0.26,-2.23,0.56,0.08,-0.63,0.00
27.569,-0.01,0.43,0.65,-0.90,-0.82,-2.06,0.56,0.08,-0.63,0.00
27.628,0.08,0.38,0.72,-0.90,-0.82,-2.06,0.56,0.08,-0.63,0.00
27.632,0.08,0.38,0.72,-0.90,-0.82,-2.06,-0.07,0.06,-0.02,0.00
27.632,0.08,0.38,0.72,0.31,-1.15,-1.02,-0.07,0.06,-0.02,0.00
27.679,0.10,0.37,1.16,0.31,-1.15,-1.02,-0.07,0.06,-0.02,0.00
27.698,0.10,0.37,1.16,0.31,-1.15,-1.02,-1.35,0.11,0.59,0.00
27.7,0.10,0.37,1.16,0.17,-0.57,2.58,-1.35,0.11,0.59,0.00
27.747,0.06,0.38,1.27,0.17,-0.57,2.58,-1.35,0.11,0.59,0.00
27.766,0.06,0.38,1.27,0.17,-0.57,2.58,-1.10,0.24,-0.01,0.00
27.768,0.06,0.38,1.27,-0.25,0.19,3.12,-1.10,0.24,-0.01,0.00
27.828,0.00,0.36,1.14,-0.25,0.19,3.12,-1.10,0.24,-0.01,0.00
27.83,0.00,0.36,1.14,-0.25,0.19,3.12,-0.55,0.28,-0.59,0.00
27.83,0.00,0.36,1.14,-1.03,0.76,2.51,-0.55,0.28,-0.59,0.00
27.877,0.06,0.35,1.13,-1.03,0.76,2.51,-0.55,0.28,-0.59,0.00
27.896,0.06,0.35,1.13,-1.03,0.76,2.51,-0.09,-0.03,0.08,0.00
27.897,0.06,0.35,1.13,0.97,0.58,0.54,-0.09,-0.03,0.08,0.00
27.952,0.05,0.20,1.39,0.97,0.58,0.54,-0.09,-0.03,0.08,0.00
27.965,0.05,0.20,1.39,0.97,0.58,0.54,-0.50,-0.05,0.33,0.00
27.965,0.05,0.20,1.39,0.05,-0.85,4.22,-0.50,-0.05,0.33,0.00
28.009,0.04,0.16,0.89,0.05,-0.85,4.22,-0.50,-0.05,0.33,0.00
28.029,0.04,0.16,0.89,0.05,-0.85,4.22,-0.68,0.01,0.09,0.00
28.042,0.04,0.16,0.89,-0.19,-0.97,-1.69,-0.68,0.01,0.09,0.00
28.075,-0.15,0.24,0.62,-0.19,-0.97,-1.69,-0.68,0.01,0.09,0.00
28.094,-0.15,0.24,0.62,-0.19,-0.97,-1.69,0.66,0.64,-3.17,0.00
28.095,-0.15,0.24,0.62,-2.23,0.81,-4.14,0.66,0.64,-3.17,0.00
28.142,-0.06,0.24,0.93,-2.23,0.81,-4.14,0.66,0.64,-3.17,0.00
28.162,-0.06,0.24,0.93,-2.23,0.81,-4.14,0.94,0.53,-2.48,0.00
28.166,-0.06,0.24,0.93,0.43,-0.56,-0.18,0.94,0.53,-2.48,0.00
28.207,-0.03,0.30,0.66,0.43,-0.56,-0.18,0.94,0.53,-2.48,0.00
28.23,-0.03,0.30,0.66,0.43,-0.56,-0.18,0.54,-0.07,0.27,0.00
28.233,-0.03,0.30,0.66,-0.47,0.48,-3.32,0.54,-0.07,0.27,0.00
28.276,-0.17,0.44,0.60,-0.47,0.48,-3.32,0.54,-0.07,0.27,0.00
28.292,-0.17,0.44,0.60,-0.47,0.48,-3.32,1.73,0.36,-0.87,0.00
28.293,-0.17,0.44,0.60,-0.00,0.27,-3.01,1.73,0.36,-0.87,0.00
28.339,0.01,0.42,0.83,-0.00,0.27,-3.01,1.73,0.36,-0.87,0.00
28.362,0.01,0.42,0.83,-0.00,0.27,-3.01,0.57,-0.11,1.03,0.00
28.367,0.01,0.42,0.83,1.14,-0.64,-0.40,0.57,-0.11,1.03,0.00
28.405,-0.05,0.45,0.95,1.14,-0.64,-0.40,0.57,-0.11,1.03,0.00
28.425,-0.05,0.45,0.95,1.14,-0.64,-0.40,-0.42,-0.13,0.73,0.00
28.442,-0.05,0.45,0.95,-0.74,0.45,0.59,-0.42,-0.13,0.73,0.00
28.471,-0.13,0.51,0.97,-0.74,0.45,0.59,-0.42,-0.13,0.73,0.00
28.49,-0.13,0.51,0.97,-0.74,0.45,0.59,0.11,0.10,-0.57,0.00
28.491,-0.13,0.51,0.97,0.08,0.54,0.31,0.11,0.10,-0.57,0.00
28.537,-0.02,0.53,1.00,0.08,0.54,0.31,0.11,0.10,-0.57,0.00
28.56,-0.02,0.53,1.00,0.08,0.54,0.31,0.06,0.03,0.66,0.00
28.566,-0.02,0.53,1.00,0.14,0.72,1.80,0.06,0.03,0.66,0.00
28.603,0.25,0.40,0.94,0.14,0.72,1.80,0.06,0.03,0.66,0.00
28.623,0.25,0.40,0.94,0.14,0.72,1.80,-0.57,0.03,3.13,0.00
28.625,0.25,0.40,0.94,2.28,-0.34,0.40,-0.57,0.03,3.13,0.00
28.669,0.06,0.43,0.91,2.28,-0.34,0.40,-0.57,0.03,3.13,0.00
28.688,0.06,0.43,0.91,2.28,-0.34,0.40,0.03,0.27,1.84,0.00
28.689,0.06,0.43,0.91,-0.49,-0.40,0.08,0.03,0.27,1.84,0.00
28.735,-0.03,0.30,0.88,-0.49,-0.40,0.08,0.03,0.27,1.84,0.00
28.757,-0.03,0.30,0.88,-0.49,-0.40,0.08,-0.57,0.52,-0.12,0.00
28.763,-0.03,0.30,0.88,-0.87,-0.97,-0.91,-0.57,0.52,-0.12,0.00
28.801,-0.05,0.41,0.74,-0.87,-0.97,-0.91,-0.57,0.52,-0.12,0.00
28.82,-0.05,0.41,0.74,-0.87,-0.97,-0.91,0.16,0.41,-0.92,0.00
28.821,-0.05,0.41,0.74,-0.47,0.11,-1.74,0.16,0.41,-0.92,0.00
28.867,-0.11,0.57,0.80,-0.47,0.11,-1.74,0.16,0.41,-0.92,0.00
28.886,-0.11,0.57,0.80,-0.47,0.11,-1.74,1.26,0.20,-1.22,0.00
28.887,-0.11,0.57,0.80,-1.10,1.12,0.36,1.26,0.20,-1.22,0.00
28.936,-0.13,0.53,0.97,-1.10,1.12,0.36,1.26,0.20,-1.22,0.00
28.956,-0.13,0.53,0.97,-1.10,1.12,0.36,0.35,0.31,-0.77,0.00
28.957,-0.13,0.53,0.97,-0.57,0.34,0.95,0.35,0.31,-0.77,0.00
28.999,-0.14,0.51,1.06,-0.57,0.34,0.95,0.35,0.31,-0.77,0.00
29.018,-0.14,0.51,1.06,-0.57,0.34,0.95,-0.31,0.53,0.63,0.00
29.019,-0.14,0.51,1.06,0.26,0.55,0.90,-0.31,0.53,0.63,0.00
29.065,0.00,0.40,1.21,0.26,0.55,0.90,-0.31,0.53,0.63,0.00
29.085,0.00,0.40,1.21,0.26,0.55,0.90,-0.96,0.92,3.10,0.00
29.087,0.00,0.40,1.21,0.76,-0.58,3.18,-0.96,0.92,3.10,0.00
29.133,-0.13,0.40,1.01,0.76,-0.58,3.18,-0.96,0.92,3.10,0.00
29.159,-0.13,0.40,1.01,0.76,-0.58,3.18,-1.04,0.96,2.02,0.00
29.16,-0.13,0.40,1.01,-0.99,0.41,1.19,-1.04,0.96,2.02,0.00
29.197,-0.13,0.43,0.97,-0.99,0.41,1.19,-1.04,0.96,2.02,0.00
29.216,-0.13,0.43,0.97,-0.99,0.41,1.19,0.01,0.34,-0.23,0.00
29.217,-0.13,0.43,0.97,-0.73,0.63,0.37,0.01,0.34,-0.23,0.00
29.263,-0.23,0.40,0.82,-0.73,0.63,0.37,0.01,0.34,-0.23,0.00
29.282,-0.23,0.40,0.82,-0.73,0.63,0.37,0.77,-0.23,-2.89,0.00
29.283,-0.23,0.40,0.82,-0.75,-0.00,-0.85,0.77,-0.23,-2.89,0.00
29.329,0.07,0.25,0.70,-0.75,-0.00,-0.85,0.77,-0.23,-2.89,0.00
29.35,0.07,0.25,0.70,-0.75,-0.00,-0.85,-0.80,0.89,4.21,0.00
29.354,0.07,0.25,0.70,1.31,-0.91,-2.09,-0.80,0.89,4.21,0.00
29.395,-0.14,0.51,0.56,1.31,-0.91,-2.09,-0.80,0.89,4.21,0.00
29.414,-0.14,0.51,0.56,1.31,-0.91,-2.09,2.03,-0.82,-1.96,0.00
29.415,-0.14,0.51,0.56,-0.39,1.01,-3.13,2.03,-0.82,-1.96,0.00
29.462,-0.05,0.57,0.92,-0.39,1.01,-3.13,2.03,-0.82,-1.96,0.00
29.48,-0.05,0.57,0.92,-0.39,1.01,-3.13,1.09,-0.15,0.28,0.00
29.481,-0.05,0.57,0.92,0.53,-0.08,0.91,1.09,-0.15,0.28,0.00
29.53,0.07,0.57,1.00,0.53,-0.08,0.91,1.09,-0.15,0.28,0.00
29.562,0.07,0.57,1.00,0.53,-0.08,0.91,-0.68,0.59,3.10,0.00
29.564,0.07,0.57,1.00,1.79,0.84,2.27,-0.68,0.59,3.10,0.00
29.593,0.30,0.60,1.30,1.79,0.84,2.27,-0.68,0.59,3.10,0.00
29.612,0.30,0.60,1.30,1.79,0.84,2.27,-0.62,0.30,3.95,0.00
29.613,0.30,0.60,1.30,2.23,1.11,3.19,-0.62,0.30,3.95,0.00
29.672,0.05,0.54,1.46,2.23,1.11,3.19,-0.62,0.30,3.95,0.00
29.678,0.05,0.54,1.46,2.23,1.11,3.19,-0.56,0.64,1.19,0.00
29.679,0.05,0.54,1.46,-0.46,0.85,5.61,-0.56,0.64,1.19,0.00
29.739,0.12,0.42,1.02,-0.46,0.85,5.61,-0.56,0.64,1.19,0.00
29.749,0.12,0.42,1.02,-0.46,0.85,5.61,-0.55,0.58,1.45,0.00
29.75,0.12,0.42,1.02,0.51,0.06,-0.26,-0.55,0.58,1.45,0.00
29.791,0.11,0.34,0.87,0.51,0.06,-0.26,-0.55,0.58,1.45,0.00
29.81,0.11,0.34,0.87,0.51,0.06,-0.26,-0.13,0.17,0.88,0.00
29.811,0.11,0.34,0.87,-0.38,-0.47,-0.80,-0.13,0.17,0.88,0.00
29.857,-0.01,0.36,0.68,-0.38,-0.47,-0.80,-0.13,0.17,0.88,0.00
29.876,-0.01,0.36,0.68,-0.38,-0.47,-0.80,0.32,0.27,-0.86,0.00
29.877,-0.01,0.36,0.68,-1.44,-0.12,-2.65,0.32,0.27,-0.86,0.00
29.939,0.04,0.37,0.70,-1.44,-0.12,-2.65,0.32,0.27,-0.86,0.00
29.945,0.04,0.37,0.70,-1.44,-0.12,-2.65,0.59,0.04,-1.30,0.00
29.946,0.04,0.37,0.70,0.32,-0.57,-1.27,0.59,0.04,-1.30,0.00
29.989,-0.02,0.48,0.92,0.32,-0.57,-1.27,0.59,0.04,-1.30,0.00
30.008,-0.02,0.48,0.92,0.32,-0.57,-1.27,0.26,0.13,-0.60,0.00
30.009,-0.02,0.48,0.92,-1.22,1.04,0.98,0.26,0.13,-0.60,0.00
30.055,-0.14,0.58,1.05,-1.22,1.04,0.98,0.26,0.13,-0.60,0.00
30.074,-0.14,0.58,1.05,-1.22,1.04,0.98,0.22,0.29,-1.08,0.00
30.076,-0.14,0.58,1.05,-0.51,0.62,1.61,0.22,0.29,-1.08,0.00
30.131,0.03,0.46,0.99,-0.51,0.62,1.61,0.22,0.29,-1.08,0.00
30.142,0.03,0.46,0.99,-0.51,0.62,1.61,-0.28,0.20,0.55,0.00
30.143,0.03,0.46,0.99,0.46,-0.12,1.55,-0.28,0.20,0.55,0.00
30.187,0.14,0.37,0.81,0.46,-0.12,1.55,-0.28,0.20,0.55,0.00
30.206,0.14,0.37,0.81,0.46,-0.12,1.55,-0.30,-0.27,1.28,0.00
30.207,0.14,0.37,0.81,1.21,-0.54,-0.12,-0.30,-0.27,1.28,0.00
30.253,-0.00,0.27,1.04,1.21,-0.54,-0.12,-0.30,-0.27,1.28,0.00
30.277,-0.00,0.27,1.04,1.21,-0.54,-0.12,-0.98,0.52,1.66,0.00
30.278,-0.00,0.27,1.04,-1.49,-0.79,0.29,-0.98,0.52,1.66,0.00
30.331,0.02,0.22,0.84,-1.49,-0.79,0.29,-0.98,0.52,1.66,0.00
30.34,0.02,0.22,0.84,-1.49,-0.79,0.29,-0.74,0.52,1.14,0.00
30.341,0.02,0.22,0.84,1.21,-1.32,-0.44,-0.74,0.52,1.14,0.00
30.385,-0.04,0.36,0.67,1.21,-1.32,-0.44,-0.74,0.52,1.14,0.00
30.404,-0.04,0.36,0.67,1.21,-1.32,-0.44,0.26,-0.18,-0.45,0.00
30.405,-0.04,0.36,0.67,-0.82,0.57,-2.78,0.26,-0.18,-0.45,0.00
30.451,0.01,0.36,0.73,-0.82,0.57,-2.78,0.26,-0.18,-0.45,0.00
30.479,0.01,0.36,0.73,-0.82,0.57,-2.78,0.94,-0.40,-1.87,0.00
30.482,0.01,0.36,0.73,1.02,-0.63,-1.05,0.94,-0.40,-1.87,0.00
30.535,0.13,0.33,0.90,1.02,-0.63,-1.05,0.94,-0.40,-1.87,0.00
30.539,0.13,0.33,0.90,1.02,-0.63,-1.05,-0.03,-0.51,0.95,0.00
30.539,0.13,0.33,0.90,0.18,-0.04,-0.08,-0.03,-0.51,0.95,0.00
30.583,-0.15,0.49,1.07,0.18,-0.04,-0.08,-0.03,-0.51,0.95,0.00
30.602,-0.15,0.49,1.07,0.18,-0.04,-0.08,0.16,0.39,-0.84,0.00
30.603,-0.15,0.49,1.07,-1.84,1.08,1.46,0.16,0.39,-0.84,0.00
30.649,0.08,0.34,1.12,-1.84,1.08,1.46,0.16,0.39,-0.84,0.00
30.669,0.08,0.34,1.12,-1.84,1.08,1.46,-0.41,0.37,0.70,0.00
30.67,0.08,0.34,1.12,0.75,-0.24,1.89,-0.41,0.37,0.70,0.00
30.715,0.14,0.39,1.03,0.75,-0.24,1.89,-0.41,0.37,0.70,0.00
30.753,0.14,0.39,1.03,0.75,-0.24,1.89,-0.17,-0.34,1.04,0.00
30.755,0.14,0.39,1.03,0.23,0.90,0.47,-0.17,-0.34,1.04,0.00
30.781,0.01,0.40,1.04,0.23,0.90,0.47,-0.17,-0.34,1.04,0.00
30.8,0.01,0.40,1.04,0.23,0.90,0.47,0.08,0.08,-0.06,0.00
30.801,0.01,0.40,1.04,0.29,-0.39,0.89,0.08,0.08,-0.06,0.00
30.847,0.15,0.31,0.74,0.29,-0.39,0.89,0.08,0.08,-0.06,0.00
30.869,0.15,0.31,0.74,0.29,-0.39,0.89,0.05,-0.53,0.43,0.00
30.871,0.15,0.31,0.74,0.58,-0.30,-1.93,0.05,-0.53,0.43,0.00
30.913,0.15,0.35,0.77,0.58,-0.30,-1.93,0.05,-0.53,0.43,0.00
30.936,0.15,0.35,0.77,0.58,-0.30,-1.93,0.38,-0.67,-0.11,0.00
30.937,0.15,0.35,0.77,0.06,-0.43,-0.64,0.38,-0.67,-0.11,0.00
30.979,0.12,0.29,0.87,0.06,-0.43,-0.64,0.38,-0.67,-0.11,0.00
30.998,0.12,0.29,0.87,0.06,-0.43,-0.64,-0.19,0.08,0.29,0.00
30.999,0.12,0.29,0.87,-0.62,-0.40,-0.95,-0.19,0.08,0.29,0.00
31.045,-0.02,0.41,0.78,-0.62,-0.40,-0.95,-0.19,0.08,0.29,0.00
31.064,-0.02,0.41,0.78,-0.62,-0.40,-0.95,0.39,0.35,-1.27,0.00
31.067,-0.02,0.41,0.78,-1.05,0.27,-1.40,0.39,0.35,-1.27,0.00
31.111,0.01,0.41,1.03,-1.05,0.27,-1.40,0.39,0.35,-1.27,0.00
31.132,0.01,0.41,1.03,-1.05,0.27,-1.40,0.11,0.42,-0.88,0.00
31.136,0.01,0.41,1.03,-0.32,0.13,1.05,0.11,0.42,-0.88,0.00
31.177,-0.03,0.34,1.12,-0.32,0.13,1.05,0.11,0.42,-0.88,0.00
31.196,-0.03,0.34,1.12,-0.32,0.13,1.05,-0.72,0.68,0.43,0.00
31.197,-0.03,0.34,1.12,-0.91,-0.39,2.31,-0.72,0.68,0.43,0.00
31.243,-0.16,0.27,1.27,-0.91,-0.39,2.31,-0.72,0.68,0.43,0.00
31.264,-0.16,0.27,1.27,-0.91,-0.39,2.31,-1.01,1.06,0.47,0.00
31.272,-0.16,0.27,1.27,-1.15,-0.03,2.42,-1.01,1.06,0.47,0.00
31.309,-0.18,0.30,1.02,-1.15,-0.03,2.42,-1.01,1.06,0.47,0.00
31.329,-0.18,0.30,1.02,-1.15,-0.03,2.42,-0.13,0.48,-0.54,0.00
31.33,-0.18,0.30,1.02,-0.88,0.24,0.57,-0.13,0.48,-0.54,0.00
31.375,-0.25,0.17,1.02,-0.88,0.24,0.57,-0.13,0.48,-0.54,0.00
31.394,-0.25,0.17,1.02,-0.88,0.24,0.57,-0.62,0.93,0.01,0.00
31.395,-0.25,0.17,1.02,-0.77,-0.45,-1.85,-0.62,0.93,0.01,0.00
31.443,-0.13,0.22,0.62,-0.77,-0.45,-1.85,-0.62,0.93,0.01,0.00
31.46,-0.13,0.22,0.62,-0.77,-0.45,-1.85,0.43,0.24,-1.11,0.00
31.463,-0.13,0.22,0.62,0.82,-0.27,-2.61,0.43,0.24,-1.11,0.00
31.507,-0.15,0.26,0.81,0.82,-0.27,-2.61,0.43,0.24,-1.11,0.00
31.527,-0.15,0.26,0.81,0.82,-0.27,-2.61,0.34,-0.21,-0.48,0.00
31.528,-0.15,0.26,0.81,0.30,0.02,-1.36,0.34,-0.21,-0.48,0.00
31.573,-0.01,0.30,0.81,0.30,0.02,-1.36,0.34,-0.21,-0.48,0.00
31.592,-0.01,0.30,0.81,0.30,0.02,-1.36,0.63,-0.90,-0.18,0.00
31.593,-0.01,0.30,0.81,1.60,0.30,-0.80,0.63,-0.90,-0.18,0.00
31.639,0.00,0.43,0.98,1.60,0.30,-0.80,0.63,-0.90,-0.18,0.00
31.658,0.00,0.43,0.98,1.60,0.30,-0.80,0.77,-1.18,-0.06,0.00
31.66,0.00,0.43,0.98,0.72,1.08,1.10,0.77,-1.18,-0.06,0.00
31.705,0.04,0.48,1.13,0.72,1.08,1.10,0.77,-1.18,-0.06,0.00
31.725,0.04,0.48,1.13,0.72,1.08,1.10,0.37,-0.78,0.03,0.00
31.726,0.04,0.48,1.13,0.58,0.94,2.28,0.37,-0.78,0.03,0.00
31.771,0.08,0.36,1.18,0.58,0.94,2.28,0.37,-0.78,0.03,0.00
31.79,0.08,0.36,1.18,0.58,0.94,2.28,-0.35,-0.24,0.47,0.00
31.791,0.08,0.36,1.18,0.57,0.05,2.37,-0.35,-0.24,0.47,0.00
31.837,0.14,0.35,1.01,0.57,0.05,2.37,-0.35,-0.24,0.47,0.00
31.856,0.14,0.35,1.01,0.57,0.05,2.37,-0.19,-0.51,0.48,0.00
31.859,0.14,0.35,1.01,-0.14,0.52,-0.07,-0.19,-0.51,0.48,0.00
31.903,0.12,0.28,0.93,-0.14,0.52,-0.07,-0.19,-0.51,0.48,0.00
31.924,0.12,0.28,0.93,-0.14,0.52,-0.07,-0.20,-0.30,0.29,0.00
31.925,0.12,0.28,0.93,1.40,-1.19,0.77,-0.20,-0.30,0.29,0.00
31.969,0.19,0.26,0.98,1.40,-1.19,0.77,-0.20,-0.30,0.29,0.00
31.988,0.19,0.26,0.98,1.40,-1.19,0.77,-0.63,-0.59,1.21,0.00
31.989,0.19,0.26,0.98,0.35,-0.06,0.24,-0.63,-0.59,1.21,0.00
32.05,0.12,0.24,0.84,0.35,-0.06,0.24,-0.63,-0.59,1.21,0.00
32.056,0.12,0.24,0.84,0.35,-0.06,0.24,-0.08,-0.18,-0.03,0.00
32.057,0.12,0.24,0.84,-0.46,-0.20,-1.06,-0.08,-0.18,-0.03,0.00
32.101,0.13,0.26,0.68,-0.46,-0.20,-1.06,-0.08,-0.18,-0.03,0.00
32.122,0.13,0.26,0.68,-0.46,-0.20,-1.06,0.30,-0.21,-0.55,0.00
32.124,0.13,0.26,0.68,-0.25,0.08,-2.71,0.30,-0.21,-0.55,0.00
32.167,0.13,0.32,0.92,-0.25,0.08,-2.71,0.30,-0.21,-0.55,0.00
32.186,0.13,0.32,0.92,-0.25,0.08,-2.71,0.34,-0.11,-0.69,0.00
32.187,0.13,0.32,0.92,-0.37,0.11,-0.14,0.34,-0.11,-0.69,0.00
32.249,0.01,0.36,1.21,-0.37,0.11,-0.14,0.34,-0.11,-0.69,0.00
32.253,0.01,0.36,1.21,-0.37,0.11,-0.14,-0.15,0.66,-0.64,0.00
32.253,0.01,0.36,1.21,-1.07,0.44,2.57,-0.15,0.66,-0.64,0.00
32.299,0.01,0.30,1.09,-1.07,0.44,2.57,-0.15,0.66,-0.64,0.00
32.319,0.01,0.30,1.09,-1.07,0.44,2.57,-0.35,0.68,-0.47,0.00
32.32,0.01,0.30,1.09,-0.76,0.10,0.74,-0.35,0.68,-0.47,0.00
32.365,-0.03,0.35,0.96,-0.76,0.10,0.74,-0.35,0.68,-0.47,0.00
32.384,-0.03,0.35,0.96,-0.76,0.10,0.74,0.25,0.26,-1.01,0.00
32.385,-0.03,0.35,0.96,-0.32,0.49,0.05,0.25,0.26,-1.01,0.00
32.434,-0.14,0.27,1.24,-0.32,0.49,0.05,0.25,0.26,-1.01,0.00
32.464,-0.14,0.27,1.24,-0.32,0.49,0.05,-0.48,0.68,-0.47,0.00
32.466,-0.14,0.27,1.24,-0.51,-0.68,2.74,-0.48,0.68,-0.47,0.00
32.497,0.02,0.11,1.17,-0.51,-0.68,2.74,-0.48,0.68,-0.47,0.00
32.518,0.02,0.11,1.17,-0.51,-0.68,2.74,-1.16,0.09,1.07,0.00
32.519,0.02,0.11,1.17,0.39,-1.06,1.45,-1.16,0.09,1.07,0.00
32.563,-0.20,0.23,0.75,0.39,-1.06,1.45,-1.16,0.09,1.07,0.00
32.587,-0.20,0.23,0.75,0.39,-1.06,1.45,0.04,0.54,-1.05,0.00
32.589,-0.20,0.23,0.75,-1.96,1.27,-3.25,0.04,0.54,-1.05,0.00
32.633,-0.17,0.31,0.82,-1.96,1.27,-3.25,0.04,0.54,-1.05,0.00
32.665,-0.17,0.31,0.82,-1.96,1.27,-3.25,1.60,0.39,-2.96,0.00
32.667,-0.17,0.31,0.82,0.00,0.29,-1.20,1.60,0.39,-2.96,0.00
32.695,-0.00,0.27,0.81,0.00,0.29,-1.20,1.60,0.39,-2.96,0.00
32.717,-0.00,0.27,0.81,0.00,0.29,-1.20,0.33,-0.68,0.21,0.00
32.72,-0.00,0.27,0.81,1.10,-0.21,-1.22,0.33,-0.68,0.21,0.00
32.769,-0.11,0.31,0.89,1.10,-0.21,-1.22,0.33,-0.68,0.21,0.00
32.783,-0.11,0.31,0.89,1.10,-0.21,-1.22,0.27,-0.44,-0.16,0.00
32.784,-0.11,0.31,0.89,-0.07,-0.14,-0.50,0.27,-0.44,-0.16,0.00
32.829,-0.10,0.29,0.75,-0.07,-0.14,-0.50,0.27,-0.44,-0.16,0.00
32.847,-0.10,0.29,0.75,-0.07,-0.14,-0.50,0.27,-0.10,-0.68,0.00
32.85,-0.10,0.29,0.75,0.09,-0.39,-1.84,0.27,-0.10,-0.68,0.00
32.893,-0.15,0.30,0.87,0.09,-0.39,-1.84,0.27,-0.10,-0.68,0.00
32.916,-0.15,0.30,0.87,0.09,-0.39,-1.84,0.08,-0.00,-0.69,0.00
32.92,-0.15,0.30,0.87,-0.23,-0.10,-1.34,0.08,-0.00,-0.69,0.00
33.006,-0.09,0.36,0.77,-0.23,-0.10,-1.34,0.08,-0.00,-0.69,0.00
33.008,-0.09,0.36,0.77,-0.23,-0.10,-1.34,0.51,-0.27,-0.64,0.00
33.008,-0.09,0.36,0.77,0.53,-0.16,0.01,0.51,-0.27,-0.64,0.00
33.025,-0.07,0.28,1.18,0.53,-0.16,0.01,0.51,-0.27,-0.64,0.00
33.051,-0.07,0.28,1.18,0.53,-0.16,0.01,-0.78,-0.21,0.56,0.00
33.052,-0.07,0.28,1.18,0.20,-0.41,1.28,-0.78,-0.21,0.56,0.00
33.091,-0.13,0.43,0.79,0.20,-0.41,1.28,-0.78,-0.21,0.56,0.00
33.112,-0.13,0.43,0.79,0.20,-0.41,1.28,0.71,-0.15,-0.88,0.00
33.114,-0.13,0.43,0.79,-0.25,0.81,-1.36,0.71,-0.15,-0.88,0.00
33.171,0.01,0.45,0.91,-0.25,0.81,-1.36,0.71,-0.15,-0.88,0.00
33.176,0.01,0.45,0.91,-0.25,0.81,-1.36,0.56,-0.31,-0.18,0.00
33.177,0.01,0.45,0.91,1.28,0.58,0.26,0.56,-0.31,-0.18,0.00
33.224,0.10,0.46,0.92,1.28,0.58,0.26,0.56,-0.31,-0.18,0.00
33.243,0.10,0.46,0.92,1.28,0.58,0.26,0.41,-0.81,0.86,0.00
33.257,0.10,0.46,0.92,1.03,0.33,-0.13,0.41,-0.81,0.86,0.00
33.289,0.09,0.46,0.80,1.03,0.33,-0.13,0.41,-0.81,0.86,0.00
33.309,0.09,0.46,0.80,1.03,0.33,-0.13,0.36,-0.61,0.37,0.00
33.311,0.09,0.46,0.80,0.33,0.14,-0.92,0.36,-0.61,0.37,0.00
33.356,0.04,0.56,0.75,0.33,0.14,-0.92,0.36,-0.61,0.37,0.00
33.376,0.04,0.56,0.75,0.33,0.14,-0.92,0.86,-0.38,-0.60,0.00
33.384,0.04,0.56,0.75,-0.81,0.61,0.73,0.86,-0.38,-0.60,0.00
33.421,-0.04,0.50,1.07,-0.81,0.61,0.73,0.86,-0.38,-0.60,0.00
33.442,-0.04,0.50,1.07,-0.81,0.61,0.73,-0.38,0.32,-0.72,0.00
33.455,-0.04,0.50,1.07,-0.83,-0.17,1.27,-0.38,0.32,-0.72,0.00
33.487,-0.01,0.41,0.94,-0.83,-0.17,1.27,-0.38,0.32,-0.72,0.00
33.507,-0.01,0.41,0.94,-0.83,-0.17,1.27,-0.58,0.16,-0.28,0.00
33.509,-0.01,0.41,0.94,0.08,-0.62,-0.03,-0.58,0.16,-0.28,0.00
33.557,-0.10,0.37,1.00,0.08,-0.62,-0.03,-0.58,0.16,-0.28,0.00
33.574,-0.10,0.37,1.00,0.08,-0.62,-0.03,-0.64,0.27,-0.50,0.00
33.576,-0.10,0.37,1.00,-0.76,-0.42,0.90,-0.64,0.27,-0.50,0.00
33.619,-0.17,0.35,0.82,-0.76,-0.42,0.90,-0.64,0.27,-0.50,0.00
33.638,-0.17,0.35,0.82,-0.76,-0.42,0.90,-0.24,0.42,-1.26,0.00
33.639,-0.17,0.35,0.82,-0.61,-0.69,-1.58,-0.24,0.42,-1.26,0.00
33.685,-0.05,0.27,0.68,-0.61,-0.69,-1.58,-0.24,0.42,-1.26,0.00
33.705,-0.05,0.27,0.68,-0.61,-0.69,-1.58,-0.16,-0.10,-0.31,0.00
33.707,-0.05,0.27,0.68,0.53,-0.73,-1.28,-0.16,-0.10,-0.31,0.00
33.753,-0.06,0.40,0.91,0.53,-0.73,-1.28,-0.16,-0.10,-0.31,0.00
33.77,-0.06,0.40,0.91,0.53,-0.73,-1.28,-0.04,-0.30,-0.02,0.00
33.773,-0.06,0.40,0.91,0.20,0.33,-0.17,-0.04,-0.30,-0.02,0.00
33.817,-0.16,0.48,0.91,0.20,0.33,-0.17,-0.04,-0.30,-0.02,0.00
33.836,-0.16,0.48,0.91,0.20,0.33,-0.17,0.70,-0.07,-0.92,0.00
33.837,-0.16,0.48,0.91,-0.27,-0.06,1.63,0.70,-0.07,-0.92,0.00
33.884,-0.05,0.32,1.03,-0.27,-0.06,1.63,0.70,-0.07,-0.92,0.00
33.905,-0.05,0.32,1.03,-0.27,-0.06,1.63,-0.62,-0.10,0.26,0.00
33.906,-0.05,0.32,1.03,0.34,-0.40,-0.70,-0.62,-0.10,0.26,0.00
33.949,-0.04,0.36,0.58,0.34,-0.40,-0.70,-0.62,-0.10,0.26,0.00
33.97,-0.04,0.36,0.58,0.34,-0.40,-0.70,0.78,-0.32,-0.22,0.00
33.972,-0.04,0.36,0.58,0.37,-0.14,-3.70,0.78,-0.32,-0.22,0.00
34.015,0.12,0.38,0.82,0.37,-0.14,-3.70,0.78,-0.32,-0.22,0.00
34.034,0.12,0.38,0.82,0.37,-0.14,-3.70,0.32,-0.74,1.18,0.00
34.035,0.12,0.38,0.82,1.48,-1.00,0.20,0.32,-0.74,1.18,0.00
34.081,0.07,0.36,0.98,1.48,-1.00,0.20,0.32,-0.74,1.18,0.00
34.102,0.07,0.36,0.98,1.48,-1.00,0.20,-0.67,-0.25,1.01,0.00
34.103,0.07,0.36,0.98,-0.91,-0.11,0.64,-0.67,-0.25,1.01,0.00
34.152,-0.15,0.50,1.14,-0.91,-0.11,0.64,-0.67,-0.25,1.01,0.00
34.185,-0.15,0.50,1.14,-0.91,-0.11,0.64,0.00,0.53,-1.38,0.00
34.188,-0.15,0.50,1.14,-1.05,0.96,0.60,0.00,0.53,-1.38,0.00
34.213,-0.06,0.42,1.06,-1.05,0.96,0.60,0.00,0.53,-1.38,0.00
34.232,-0.06,0.42,1.06,-1.05,0.96,0.60,-0.07,0.16,-0.53,0.00
34.233,-0.06,0.42,1.06,-0.13,0.12,1.39,-0.07,0.16,-0.53,0.00
34.283,-0.00,0.40,0.97,-0.13,0.12,1.39,-0.07,0.16,-0.53,0.00
34.3,-0.00,0.40,0.97,-0.13,0.12,1.39,-0.23,-0.11,0.14,0.00
34.302,-0.00,0.40,0.97,0.46,-0.30,1.75,-0.23,-0.11,0.14,0.00
34.359,-0.07,0.35,1.19,0.46,-0.30,1.75,-0.23,-0.11,0.14,0.00
34.364,-0.07,0.35,1.19,0.46,-0.30,1.75,-0.50,0.14,-0.38,0.00
34.365,-0.07,0.35,1.19,-1.22,0.56,0.56,-0.50,0.14,-0.38,0.00
34.411,-0.20,0.42,0.77,-1.22,0.56,0.56,-0.50,0.14,-0.38,0.00
34.43,-0.20,0.42,0.77,-1.22,0.56,0.56,0.92,0.46,-2.04,0.00
34.431,-0.20,0.42,0.77,-0.85,0.36,-1.38,0.92,0.46,-2.04,0.00
34.477,-0.10,0.32,0.79,-0.85,0.36,-1.38,0.92,0.46,-2.04,0.00
34.497,-0.10,0.32,0.79,-0.85,0.36,-1.38,0.12,0.02,-0.53,0.00
34.499,-0.10,0.32,0.79,0.14,-0.65,-1.79,0.12,0.02,-0.53,0.00
34.558,-0.13,0.34,0.66,0.14,-0.65,-1.79,0.12,0.02,-0.53,0.00
34.562,-0.13,0.34,0.66,0.14,-0.65,-1.79,0.38,-0.01,-0.50,0.00
34.563,-0.13,0.34,0.66,0.37,-0.57,-2.08,0.38,-0.01,-0.50,0.00
34.609,-0.17,0.38,0.83,0.37,-0.57,-2.08,0.38,-0.01,-0.50,0.00
34.628,-0.17,0.38,0.83,0.37,-0.57,-2.08,0.21,0.04,-0.53,0.00
34.629,-0.17,0.38,0.83,-0.23,-0.29,-0.93,0.21,0.04,-0.53,0.00
34.675,-0.11,0.40,0.80,-0.23,-0.29,-0.93,0.21,0.04,-0.53,0.00
34.695,-0.11,0.40,0.80,-0.23,-0.29,-0.93,0.04,-0.12,0.13,0.00
34.697,-0.11,0.40,0.80,0.90,-0.28,1.91,0.04,-0.12,0.13,0.00
34.756,0.02,0.46,1.05,0.90,-0.28,1.91,0.04,-0.12,0.13,0.00
34.761,0.02,0.46,1.05,0.90,-0.28,1.91,-0.44,-0.53,1.58,0.00
34.762,0.02,0.46,1.05,0.63,0.89,1.37,-0.44,-0.53,1.58,0.00
34.807,-0.10,0.46,1.25,0.63,0.89,1.37,-0.44,-0.53,1.58,0.00
34.826,-0.10,0.46,1.25,0.63,0.89,1.37,-0.71,-0.09,0.82,0.00
34.827,-0.10,0.46,1.25,0.27,0.05,4.26,-0.71,-0.09,0.82,0.00
34.873,0.09,0.36,0.98,0.27,0.05,4.26,-0.71,-0.09,0.82,0.00
34.894,0.09,0.36,0.98,0.27,0.05,4.26,-0.67,-0.39,1.65,0.00
34.896,0.09,0.36,0.98,0.65,0.32,-0.75,-0.67,-0.39,1.65,0.00
34.945,-0.03,0.41,0.84,0.65,0.32,-0.75,-0.67,-0.39,1.65,0.00
34.958,-0.03,0.41,0.84,0.65,0.32,-0.75,0.34,-0.14,0.31,0.00
34.959,-0.03,0.41,0.84,-0.38,0.46,-0.89,0.34,-0.14,0.31,0.00
35.005,0.05,0.38,0.73,-0.38,0.46,-0.89,0.34,-0.14,0.31,0.00
35.024,0.05,0.38,0.73,-0.38,0.46,-0.89,0.63,-0.26,0.20,0.00
35.026,0.05,0.38,0.73,0.45,-0.25,-2.34,0.63,-0.26,0.20,0.00
35.077,0.00,0.40,0.81,0.45,-0.25,-2.34,0.63,-0.26,0.20,0.00
35.102,0.00,0.40,0.81,0.45,-0.25,-2.34,0.48,-0.06,-0.06,0.00
35.104,0.00,0.40,0.81,-0.74,-0.25,-0.05,0.48,-0.06,-0.06,0.00
35.141,-0.11,0.45,0.97,-0.74,-0.25,-0.05,0.48,-0.06,-0.06,0.00
35.156,-0.11,0.45,0.97,-0.74,-0.25,-0.05,-0.01,0.42,-0.71,0.00
35.157,-0.11,0.45,0.97,-1.06,0.15,0.67,-0.01,0.42,-0.71,0.00
35.204,-0.21,0.50,1.15,-1.06,0.15,0.67,-0.01,0.42,-0.71,0.00
35.224,-0.21,0.50,1.15,-1.06,0.15,0.67,-0.29,0.60,-0.90,0.00
35.225,-0.21,0.50,1.15,-0.62,0.10,2.71,-0.29,0.60,-0.90,0.00
35.27,-0.00,0.31,1.25,-0.62,0.10,2.71,-0.29,0.60,-0.90,0.00
35.292,-0.00,0.31,1.25,-0.62,0.10,2.71,-1.25,-0.05,1.19,0.00
35.298,-0.00,0.31,1.25,1.14,-0.51,2.66,-1.25,-0.05,1.19,0.00
35.335,-0.18,0.48,0.98,1.14,-0.51,2.66,-1.25,-0.05,1.19,0.00
35.367,-0.18,0.48,0.98,1.14,-0.51,2.66,0.35,0.14,-0.53,0.00
35.368,-0.18,0.48,0.98,-2.20,1.54,-0.04,0.35,0.14,-0.53,0.00
35.401,-0.25,0.44,0.84,-2.20,1.54,-0.04,0.35,0.14,-0.53,0.00
35.42,-0.25,0.44,0.84,-2.20,1.54,-0.04,0.93,0.50,-1.77,0.00
35.422,-0.25,0.44,0.84,-0.06,-0.09,-1.22,0.93,0.50,-1.77,0.00
35.468,-0.06,0.35,0.70,-0.06,-0.09,-1.22,0.93,0.50,-1.77,0.00
35.488,-0.06,0.35,0.70,-0.06,-0.09,-1.22,0.38,-0.05,-0.09,0.00
35.491,-0.06,0.35,0.70,0.41,-0.66,-1.84,0.38,-0.05,-0.09,0.00
35.533,-0.09,0.33,0.65,0.41,-0.66,-1.84,0.38,-0.05,-0.09,0.00
35.553,-0.09,0.33,0.65,0.41,-0.66,-1.84,0.24,-0.03,-0.07,0.00
35.566,-0.09,0.33,0.65,0.44,-0.93,-2.42,0.24,-0.03,-0.07,0.00
35.599,-0.09,0.37,0.71,0.44,-0.93,-2.42,0.24,-0.03,-0.07,0.00
35.618,-0.09,0.37,0.71,0.44,-0.93,-2.42,0.22,-0.10,0.16,0.00
35.619,-0.09,0.37,0.71,0.29,-0.47,-1.70,0.22,-0.10,0.16,0.00
35.665,-0.03,0.44,0.69,0.29,-0.47,-1.70,0.22,-0.10,0.16,0.00
35.693,-0.03,0.44,0.69,0.29,-0.47,-1.70,0.40,-0.25,0.60,0.00
35.694,-0.03,0.44,0.69,0.69,-0.05,0.89,0.40,-0.25,0.60,0.00
35.731,0.11,0.43,0.99,0.69,-0.05,0.89,0.40,-0.25,0.60,0.00
35.751,0.11,0.43,0.99,0.69,-0.05,0.89,-0.62,-0.48,1.73,0.00
35.762,0.11,0.43,0.99,1.25,-0.12,0.81,-0.62,-0.48,1.73,0.00
35.797,-0.02,0.39,1.40,1.25,-0.12,0.81,-0.62,-0.48,1.73,0.00
35.816,-0.02,0.39,1.40,1.25,-0.12,0.81,-1.13,0.13,0.72,0.00
35.817,-0.02,0.39,1.40,-0.48,0.53,3.26,-1.13,0.13,0.72,0.00
35.864,-0.06,0.44,0.94,-0.48,0.53,3.26,-1.13,0.13,0.72,0.00
35.888,-0.06,0.44,0.94,-0.48,0.53,3.26,0.06,0.14,-0.38,0.00
35.893,-0.06,0.44,0.94,-0.70,0.98,-0.80,0.06,0.14,-0.38,0.00
35.929,-0.08,0.43,0.77,-0.70,0.98,-0.80,0.06,0.14,-0.38,0.00
35.951,-0.08,0.43,0.77,-0.70,0.98,-0.80,0.79,0.11,-0.75,0.00
35.953,-0.08,0.43,0.77,-0.05,0.09,-1.47,0.79,0.11,-0.75,0.00
35.995,-0.03,0.33,0.73,-0.05,0.09,-1.47,0.79,0.11,-0.75,0.00
36.014,-0.03,0.33,0.73,-0.05,0.09,-1.47,0.20,0.03,-0.01,0.00
36.015,-0.03,0.33,0.73,0.18,-0.89,-1.76,0.20,0.03,-0.01,0.00
36.064,-0.08,0.31,0.86,0.18,-0.89,-1.76,0.20,0.03,-0.01,0.00
36.088,-0.08,0.31,0.86,0.18,-0.89,-1.76,-0.28,0.18,0.15,0.00
36.09,-0.08,0.31,0.86,-0.43,-0.75,0.36,-0.28,0.18,0.15,0.00
36.127,-0.17,0.41,0.89,-0.43,-0.75,0.36,-0.28,0.18,0.15,0.00
36.146,-0.17,0.41,0.89,-0.43,-0.75,0.36,0.02,0.40,-0.49,0.00
36.147,-0.17,0.41,0.89,-0.48,0.79,-0.92,0.02,0.40,-0.49,0.00
36.194,-0.00,0.47,0.79,-0.48,0.79,-0.92,0.02,0.40,-0.49,0.00
36.212,-0.00,0.47,0.79,-0.48,0.79,-0.92,0.72,-0.15,0.48,0.00
36.214,-0.00,0.47,0.79,0.66,0.65,-0.02,0.72,-0.15,0.48,0.00
36.261,-0.08,0.53,1.27,0.66,0.65,-0.02,0.72,-0.15,0.48,0.00
36.28,-0.08,0.53,1.27,0.66,0.65,-0.02,-0.28,0.01,0.57,0.00
36.283,-0.08,0.53,1.27,-0.26,0.89,3.61,-0.28,0.01,0.57,0.00
36.325,-0.34,0.63,1.09,-0.26,0.89,3.61,-0.28,0.01,0.57,0.00
36.344,-0.34,0.63,1.09,-0.26,0.89,3.61,0.50,0.53,-1.41,0.00
36.345,-0.34,0.63,1.09,-2.07,1.36,1.31,0.50,0.53,-1.41,0.00
36.391,-0.23,0.45,0.89,-2.07,1.36,1.31,0.50,0.53,-1.41,0.00
36.41,-0.23,0.45,0.89,-2.07,1.36,1.31,0.24,0.41,-0.96,0.00
36.411,-0.23,0.45,0.89,0.18,-0.46,-1.22,0.24,0.41,-0.96,0.00
36.459,-0.20,0.29,0.61,0.18,-0.46,-1.22,0.24,0.41,-0.96,0.00
36.478,-0.20,0.29,0.61,0.18,-0.46,-1.22,0.30,0.32,-0.60,0.00
36.479,-0.20,0.29,0.61,0.07,-1.80,-2.46,0.30,0.32,-0.60,0.00
36.523,-0.08,0.18,0.88,0.07,-1.80,-2.46,0.30,0.32,-0.60,0.00
36.542,-0.08,0.18,0.88,0.07,-1.80,-2.46,-1.84,0.15,0.75,0.00
36.543,-0.08,0.18,0.88,1.24,-2.08,-0.17,-1.84,0.15,0.75,0.00
36.589,-0.09,0.40,0.95,1.24,-2.08,-0.17,-1.84,0.15,0.75,0.00
36.608,-0.09,0.40,0.95,1.24,-2.08,-0.17,-0.84,-0.15,1.71,0.00
36.609,-0.09,0.40,0.95,0.33,1.00,1.93,-0.84,-0.15,1.71,0.00
36.67,0.19,0.47,0.80,0.33,1.00,1.93,-0.84,-0.15,1.71,0.00
36.676,0.19,0.47,0.80,0.33,1.00,1.93,0.33,-0.76,2.29,0.00
36.681,0.19,0.47,0.80,2.53,0.93,-1.26,0.33,-0.76,2.29,0.00
36.721,0.28,0.42,1.22,2.53,0.93,-1.26,0.33,-0.76,2.29,0.00
36.74,0.28,0.42,1.22,2.53,0.93,-1.26,-0.01,-1.16,3.04,0.00
36.741,0.28,0.42,1.22,1.88,0.35,2.88,-0.01,-1.16,3.04,0.00
36.787,0.06,0.47,1.37,1.88,0.35,2.88,-0.01,-1.16,3.04,0.00
36.806,0.06,0.47,1.37,1.88,0.35,2.88,-0.26,0.15,0.90,0.00
36.808,0.06,0.47,1.37,0.32,0.88,2.52,-0.26,0.15,0.90,0.00
36.865,0.21,0.40,0.94,0.32,0.88,2.52,-0.26,0.15,0.90,0.00
36.874,0.21,0.40,0.94,0.32,0.88,2.52,0.18,-0.25,0.68,0.00
36.879,0.21,0.40,0.94,0.40,0.42,-0.75,0.18,-0.25,0.68,0.00
36.919,0.01,0.43,0.84,0.40,0.42,-0.75,0.18,-0.25,0.68,0.00
36.938,0.01,0.43,0.84,0.40,0.42,-0.75,0.52,0.26,-0.39,0.00
36.939,0.01,0.43,0.84,-1.06,0.32,-0.72,0.52,0.26,-0.39,0.00
36.985,-0.05,0.41,0.92,-1.06,0.32,-0.72,0.52,0.26,-0.39,0.00
37.004,-0.05,0.41,0.92,-1.06,0.32,-0.72,0.12,0.81,-0.76,0.00
37.005,-0.05,0.41,0.92,-1.30,-0.21,0.19,0.12,0.81,-0.76,0.00
37.054,-0.12,0.37,0.91,-1.30,-0.21,0.19,0.12,0.81,-0.76,0.00
37.088,-0.12,0.37,0.91,-1.30,-0.21,0.19,-0.21,0.96,-0.73,0.00
37.09,-0.12,0.37,0.91,-1.12,-0.38,0.26,-0.21,0.96,-0.73,0.00
37.117,-0.25,0.42,0.87,-1.12,-0.38,0.26,-0.21,0.96,-0.73,0.00
37.136,-0.25,0.42,0.87,-1.12,-0.38,0.26,-0.18,0.98,-0.88,0.00
37.137,-0.25,0.42,0.87,-1.42,0.34,-0.46,-0.18,0.98,-0.88,0.00
37.183,-0.07,0.19,1.35,-1.42,0.34,-0.46,-0.18,0.98,-0.88,0.00
37.202,-0.07,0.19,1.35,-1.42,0.34,-0.46,-1.40,0.55,1.07,0.00
37.203,-0.07,0.19,1.35,2.13,-2.48,4.39,-1.40,0.55,1.07,0.00
37.252,0.05,0.21,1.16,2.13,-2.48,4.39,-1.40,0.55,1.07,0.00
37.286,0.05,0.21,1.16,2.13,-2.48,4.39,-1.46,-0.42,2.68,0.00
37.288,0.05,0.21,1.16,0.05,1.18,1.01,-1.46,-0.42,2.68,0.00
37.315,-0.26,0.52,1.10,0.05,1.18,1.01,-1.46,-0.42,2.68,0.00
37.334,-0.26,0.52,1.10,0.05,1.18,1.01,1.28,0.45,-1.76,0.00
37.335,-0.26,0.52,1.10,-2.00,2.41,1.41,1.28,0.45,-1.76,0.00
37.381,-0.06,0.38,0.85,-2.00,2.41,1.41,1.28,0.45,-1.76,0.00
37.4,-0.06,0.38,0.85,-2.00,2.41,1.41,0.98,0.05,-0.78,0.00
37.402,-0.06,0.38,0.85,0.54,0.31,-0.77,0.98,0.05,-0.78,0.00
37.45,-0.14,0.36,0.73,0.54,0.31,-0.77,0.98,0.05,-0.78,0.00
37.481,-0.14,0.36,0.73,0.54,0.31,-0.77,0.70,0.06,-0.39,0.00
37.483,-0.14,0.36,0.73,-0.32,-0.08,-2.81,0.70,0.06,-0.39,0.00
37.513,-0.12,0.39,0.55,-0.32,-0.08,-2.81,0.70,0.06,-0.39,0.00
37.532,-0.12,0.39,0.55,-0.32,-0.08,-2.81,1.23,-0.00,-0.78,0.00
37.533,-0.12,0.39,0.55,0.75,-0.80,-2.36,1.23,-0.00,-0.78,0.00
37.591,0.00,0.38,0.80,0.75,-0.80,-2.36,1.23,-0.00,-0.78,0.00
37.598,0.00,0.38,0.80,0.75,-0.80,-2.36,-0.17,-0.25,1.46,0.00
37.599,0.00,0.38,0.80,0.93,-0.80,-0.80,-0.17,-0.25,1.46,0.00
37.657,-0.13,0.52,0.73,0.93,-0.80,-0.80,-0.17,-0.25,1.46,0.00
37.666,-0.13,0.52,0.73,0.93,-0.80,-0.80,0.82,0.00,-0.36,0.00
37.666,-0.13,0.52,0.73,-0.42,0.45,-1.86,0.82,0.00,-0.36,0.00
37.711,-0.05,0.50,0.70,-0.42,0.45,-1.86,0.82,0.00,-0.36,0.00
37.73,-0.05,0.50,0.70,-0.42,0.45,-1.86,0.88,-0.14,-0.18,0.00
37.731,-0.05,0.50,0.70,0.24,0.02,-1.01,0.88,-0.14,-0.18,0.00
37.78,0.09,0.48,0.86,0.24,0.02,-1.01,0.88,-0.14,-0.18,0.00
37.796,0.09,0.48,0.86,0.24,0.02,-1.01,0.35,-0.35,1.01,0.00
37.799,0.09,0.48,0.86,1.43,-0.97,0.50,0.35,-0.35,1.01,0.00
37.843,0.36,0.22,1.51,1.43,-0.97,0.50,0.35,-0.35,1.01,0.00
37.878,0.36,0.22,1.51,1.43,-0.97,0.50,-3.08,0.25,4.90,0.00
37.879,0.36,0.22,1.51,2.07,-1.03,3.98,-3.08,0.25,4.90,0.00
37.909,-0.01,0.45,1.23,2.07,-1.03,3.98,-3.08,0.25,4.90,0.00
37.928,-0.01,0.45,1.23,2.07,-1.03,3.98,-0.79,0.64,1.17,0.00
37.929,-0.01,0.45,1.23,-2.78,1.49,2.65,-0.79,0.64,1.17,0.00
37.975,-0.31,0.44,1.07,-2.78,1.49,2.65,-0.79,0.64,1.17,0.00
37.995,-0.31,0.44,1.07,-2.78,1.49,2.65,0.16,1.74,-1.28,0.00
37.999,-0.31,0.44,1.07,-2.73,0.69,0.62,0.16,1.74,-1.28,0.00
38.041,-0.02,0.29,0.73,-2.73,0.69,0.62,0.16,1.74,-1.28,0.00
38.077,-0.02,0.29,0.73,-2.73,0.69,0.62,0.17,0.65,-0.39,0.00
38.079,-0.02,0.29,0.73,0.94,-0.40,-1.60,0.17,0.65,-0.39,0.00
38.107,-0.07,0.37,0.83,0.94,-0.40,-1.60,0.17,0.65,-0.39,0.00
38.126,-0.07,0.37,0.83,0.94,-0.40,-1.60,0.31,-0.00,0.04,0.00
38.127,-0.07,0.37,0.83,0.14,0.01,-0.65,0.31,-0.00,0.04,0.00
38.173,-0.03,0.32,0.98,0.14,0.01,-0.65,0.31,-0.00,0.04,0.00
38.192,-0.03,0.32,0.98,0.14,0.01,-0.65,-0.16,0.06,0.79,0.00
38.196,-0.03,0.32,0.98,0.52,-0.43,0.36,-0.16,0.06,0.79,0.00
38.239,-0.08,0.35,0.84,0.52,-0.43,0.36,-0.16,0.06,0.79,0.00
38.261,-0.08,0.35,0.84,0.52,-0.43,0.36,0.03,0.14,0.47,0.00
38.263,-0.08,0.35,0.84,-0.13,-0.06,-0.88,0.03,0.14,0.47,0.00
38.305,-0.05,0.36,0.87,-0.13,-0.06,-0.88,0.03,0.14,0.47,0.00
38.324,-0.05,0.36,0.87,-0.13,-0.06,-0.88,0.17,0.05,0.21,0.00
38.325,-0.05,0.36,0.87,0.08,0.30,-0.76,0.17,0.05,0.21,0.00
38.372,-0.07,0.38,1.00,0.08,0.30,-0.76,0.17,0.05,0.21,0.00
38.392,-0.07,0.38,1.00,0.08,0.30,-0.76,0.18,0.07,0.12,0.00
38.393,-0.07,0.38,1.00,-0.04,-0.16,0.73,0.18,0.07,0.12,0.00
38.437,0.03,0.35,0.79,-0.04,-0.16,0.73,0.18,0.07,0.12,0.00
38.473,0.03,0.35,0.79,-0.04,-0.16,0.73,0.09,-0.41,0.60,0.00
38.475,0.03,0.35,0.79,1.18,-0.18,-0.67,0.09,-0.41,0.60,0.00
38.504,0.06,0.44,0.99,1.18,-0.18,-0.67,0.09,-0.41,0.60,0.00
38.522,0.06,0.44,0.99,1.18,-0.18,-0.67,0.15,-0.71,0.49,0.00
38.524,0.06,0.44,0.99,0.40,0.51,0.73,0.15,-0.71,0.49,0.00
38.569,-0.16,0.48,1.03,0.40,0.51,0.73,0.15,-0.71,0.49,0.00
38.588,-0.16,0.48,1.03,0.40,0.51,0.73,0.19,0.57,-0.80,0.00
38.589,-0.16,0.48,1.03,-1.62,0.73,0.73,0.19,0.57,-0.80,0.00
38.635,-0.16,0.45,0.79,-1.62,0.73,0.73,0.19,0.57,-0.80,0.00
38.656,-0.16,0.45,0.79,-1.62,0.73,0.73,0.76,0.20,-1.95,0.00
38.657,-0.16,0.45,0.79,-0.77,0.07,-1.95,0.76,0.20,-1.95,0.00
38.701,-0.20,0.39,0.55,-0.77,0.07,-1.95,0.76,0.20,-1.95,0.00
38.72,-0.20,0.39,0.55,-0.77,0.07,-1.95,1.22,-0.20,-2.59,0.00
38.722,-0.20,0.39,0.55,-0.44,-0.83,-3.12,1.22,-0.20,-2.59,0.00
38.771,-0.16,0.36,0.61,-0.44,-0.83,-3.12,1.22,-0.20,-2.59,0.00
38.793,-0.16,0.36,0.61,-0.44,-0.83,-3.12,0.54,-0.01,-1.20,0.00
38.794,-0.16,0.36,0.61,0.66,-1.31,-2.44,0.54,-0.01,-1.20,0.00
38.833,-0.13,0.38,0.69,0.66,-1.31,-2.44,0.54,-0.01,-1.20,0.00
38.855,-0.13,0.38,0.69,0.66,-1.31,-2.44,-0.30,0.29,0.81,0.00
38.856,-0.13,0.38,0.69,1.23,-1.48,-1.23,-0.30,0.29,0.81,0.00
38.899,-0.04,0.41,0.79,1.23,-1.48,-1.23,-0.30,0.29,0.81,0.00
38.918,-0.04,0.41,0.79,1.23,-1.48,-1.23,-0.78,0.12,2.40,0.00
38.919,-0.04,0.41,0.79,0.86,-0.67,-0.76,-0.78,0.12,2.40,0.00
38.967,-0.13,0.57,1.30,0.86,-0.67,-0.76,-0.78,0.12,2.40,0.00
38.992,-0.13,0.57,1.30,0.86,-0.67,-0.76,-0.89,0.50,1.82,0.00
38.995,-0.13,0.57,1.30,-1.14,1.24,6.40,-0.89,0.50,1.82,0.00
39.031,-0.24,0.55,1.41,-1.14,1.24,6.40,-0.89,0.50,1.82,0.00
39.052,-0.24,0.55,1.41,-1.14,1.24,6.40,-0.93,1.05,1.31,0.00
39.053,-0.24,0.55,1.41,-1.07,1.29,3.01,-0.93,1.05,1.31,0.00
39.097,-0.06,0.38,1.10,-1.07,1.29,3.01,-0.93,1.05,1.31,0.00
39.116,-0.06,0.38,1.10,-1.07,1.29,3.01,-0.58,0.22,1.29,0.00
39.117,-0.06,0.38,1.10,0.76,-0.23,0.70,-0.58,0.22,1.29,0.00
39.179,-0.07,0.42,0.51,0.76,-0.23,0.70,-0.58,0.22,1.29,0.00
39.182,-0.07,0.42,0.51,0.76,-0.23,0.70,0.52,-0.48,-0.49,0.00
39.183,-0.07,0.42,0.51,0.13,0.31,-4.06,0.52,-0.48,-0.49,0.00
39.229,-0.14,0.49,0.59,0.13,0.31,-4.06,0.52,-0.48,-0.49,0.00
39.249,-0.14,0.49,0.59,0.13,0.31,-4.06,1.84,-0.94,-2.76,0.00
39.25,-0.14,0.49,0.59,-0.05,0.07,-2.38,1.84,-0.94,-2.76,0.00
39.296,-0.07,0.48,0.82,-0.05,0.07,-2.38,1.84,-0.94,-2.76,0.00
39.314,-0.07,0.48,0.82,-0.05,0.07,-2.38,0.14,-0.03,0.26,0.00
39.315,-0.07,0.48,0.82,0.29,-0.45,0.79,0.14,-0.03,0.26,0.00
39.371,-0.08,0.53,0.85,0.29,-0.45,0.79,0.14,-0.03,0.26,0.00
39.38,-0.08,0.53,0.85,0.29,-0.45,0.79,-0.31,0.34,0.92,0.00
39.386,-0.08,0.53,0.85,0.24,0.27,-0.09,-0.31,0.34,0.92,0.00
39.427,0.06,0.56,0.76,0.24,0.27,-0.09,-0.31,0.34,0.92,0.00
39.447,0.06,0.56,0.76,0.24,0.27,-0.09,0.30,-0.56,0.50,0.00
39.448,0.06,0.56,0.76,0.77,0.45,-2.33,0.30,-0.56,0.50,0.00
39.493,0.00,0.46,1.03,0.77,0.45,-2.33,0.30,-0.56,0.50,0.00
39.512,0.00,0.46,1.03,0.77,0.45,-2.33,-0.64,0.36,1.53,0.00
39.513,0.00,0.46,1.03,0.89,-1.27,2.85,-0.64,0.36,1.53,0.00
39.566,-0.02,0.40,0.96,0.89,-1.27,2.85,-0.64,0.36,1.53,0.00
39.578,-0.02,0.40,0.96,0.89,-1.27,2.85,-0.89,0.73,1.59,0.00
39.579,-0.02,0.40,0.96,-1.71,0.64,-1.60,-0.89,0.73,1.59,0.00
39.625,-0.46,0.61,0.79,-1.71,0.64,-1.60,-0.89,0.73,1.59,0.00
39.645,-0.46,0.61,0.79,-1.71,0.64,-1.60,1.62,0.60,-3.89,0.00
39.647,-0.46,0.61,0.79,-1.55,0.31,-0.94,1.62,0.60,-3.89,0.00
39.691,-0.23,0.45,0.70,-1.55,0.31,-0.94,1.62,0.60,-3.89,0.00
39.71,-0.23,0.45,0.70,-1.55,0.31,-0.94,0.64,0.21,-1.46,0.00
39.711,-0.23,0.45,0.70,0.11,-0.74,-1.75,0.64,0.21,-1.46,0.00
39.771,-0.17,0.48,0.68,0.11,-0.74,-1.75,0.64,0.21,-1.46,0.00
39.776,-0.17,0.48,0.68,0.11,-0.74,-1.75,-0.05,0.07,0.75,0.00
39.776,-0.17,0.48,0.68,1.56,-0.70,-0.25,-0.05,0.07,0.75,0.00
39.823,0.10,0.68,0.76,1.56,-0.70,-0.25,-0.05,0.07,0.75,0.00
39.844,0.10,0.68,0.76,1.56,-0.70,-0.25,0.59,-1.51,1.47,0.00
39.845,0.10,0.68,0.76,2.31,1.08,0.39,0.59,-1.51,1.47,0.00
39.889,-0.02,0.59,1.53,2.31,1.08,0.39,0.59,-1.51,1.47,0.00
39.908,-0.02,0.59,1.53,2.31,1.08,0.39,-1.72,0.64,2.90,0.00
39.909,-0.02,0.59,1.53,-0.37,-0.04,7.01,-1.72,0.64,2.90,0.00
39.97,-0.24,0.61,0.90,-0.37,-0.04,7.01,-1.72,0.64,2.90,0.00
39.974,-0.24,0.61,0.90,-0.37,-0.04,7.01,0.05,0.89,-0.60,0.00
39.974,-0.24,0.61,0.90,-2.56,1.55,-1.03,0.05,0.89,-0.60,0.00
40.021,-0.27,0.53,0.91,-2.56,1.55,-1.03,0.05,0.89,-0.60,0.00
40.041,-0.27,0.53,0.91,-2.56,1.55,-1.03,0.06,0.84,-0.74,0.00
40.043,-0.27,0.53,0.91,-0.34,-0.48,0.57,0.06,0.84,-0.74,0.00
40.087,0.00,0.38,0.54,-0.34,-0.48,0.57,0.06,0.84,-0.74,0.00
40.107,0.00,0.38,0.54,-0.34,-0.48,0.57,0.06,-0.18,0.07,0.00
40.11,0.00,0.38,0.54,1.43,-1.17,-3.09,0.06,-0.18,0.07,0.00
40.153,-0.04,0.46,0.74,1.43,-1.17,-3.09,0.06,-0.18,0.07,0.00
40.172,-0.04,0.46,0.74,1.43,-1.17,-3.09,0.34,-0.80,-0.05,0.00
40.186,-0.04,0.46,0.74,-0.02,-0.12,-1.50,0.34,-0.80,-0.05,0.00
40.219,-0.11,0.48,0.90,-0.02,-0.12,-1.50,0.34,-0.80,-0.05,0.00
40.239,-0.11,0.48,0.90,-0.02,-0.12,-1.50,-0.27,0.16,0.25,0.00
40.241,-0.11,0.48,0.90,0.01,-0.39,0.49,-0.27,0.16,0.25,0.00
40.285,-0.10,0.70,0.66,0.01,-0.39,0.49,-0.27,0.16,0.25,0.00
40.305,-0.10,0.70,0.66,0.01,-0.39,0.49,1.52,-1.25,-1.89,0.00
40.31,-0.10,0.70,0.66,-0.08,1.19,-1.53,1.52,-1.25,-1.89,0.00
40.351,-0.23,0.73,0.53,-0.08,1.19,-1.53,1.52,-1.25,-1.89,0.00
40.37,-0.23,0.73,0.53,-0.08,1.19,-1.53,2.66,-2.17,-3.77,0.00
40.382,-0.23,0.73,0.53,-0.40,-0.55,-1.15,2.66,-2.17,-3.77,0.00
40.417,0.04,0.46,1.02,-0.40,-0.55,-1.15,2.66,-2.17,-3.77,0.00
40.437,0.04,0.46,1.02,-0.40,-0.55,-1.15,-2.17,0.91,2.77,0.00
40.439,0.04,0.46,1.02,2.33,-1.67,3.30,-2.17,0.91,2.77,0.00
40.483,-0.04,0.58,1.17,2.33,-1.67,3.30,-2.17,0.91,2.77,0.00
40.506,-0.04,0.58,1.17,2.33,-1.67,3.30,-1.98,0.71,2.69,0.00
40.508,-0.04,0.58,1.17,-0.33,0.57,3.08,-1.98,0.71,2.69,0.00
40.55,-0.23,0.63,0.81,-0.33,0.57,3.08,-1.98,0.71,2.69,0.00
40.581,-0.23,0.63,0.81,-0.33,0.57,3.08,0.33,-0.14,-2.13,0.00
40.601,-0.23,0.63,0.81,-0.48,0.24,-0.84,0.33,-0.14,-2.13,0.00
40.619,-0.08,0.38,0.82,-0.48,0.24,-0.84,0.33,-0.14,-2.13,0.00
40.636,-0.08,0.38,0.82,-0.48,0.24,-0.84,-0.39,0.32,0.06,0.00
40.637,-0.08,0.38,0.82,-0.22,-1.20,-1.45,-0.39,0.32,0.06,0.00
