time,gFx,gFy,gFz,ax,ay,az,wx,wy,wz,P
1.297,0.11,0.48,0.88,0.05,0.04,0.19,0.04,0.00,0.01,0.00
1.298,0.11,0.48,0.88,0.03,0.11,-0.08,0.04,0.00,0.01,0.00
1.336,0.11,0.48,0.88,0.03,0.11,-0.08,0.01,0.05,-0.01,0.00
1.337,0.11,0.48,0.88,0.04,0.10,0.09,0.01,0.05,-0.01,0.00
1.376,0.10,0.46,0.86,0.04,0.10,0.09,0.01,0.05,-0.01,0.00
1.377,0.10,0.46,0.86,0.04,0.10,0.09,0.02,0.09,0.01,0.00
1.377,0.10,0.46,0.86,-0.09,-0.06,-0.14,0.02,0.09,0.01,0.00
1.416,0.10,0.46,0.86,0.01,-0.04,-0.00,0.02,0.09,0.01,0.00
1.455,0.10,0.46,0.86,0.10,-0.01,0.03,0.02,0.09,0.01,0.00
1.456,0.10,0.46,0.88,0.10,-0.01,0.03,0.02,0.09,0.01,0.00
1.456,0.10,0.46,0.88,0.10,-0.01,0.03,-0.06,0.16,0.04,0.00
1.495,0.07,0.46,0.87,0.10,-0.01,0.03,-0.06,0.16,0.04,0.00
1.495,0.07,0.46,0.87,0.05,0.00,0.04,-0.06,0.16,0.04,0.00
1.534,0.07,0.46,0.87,0.05,0.00,0.04,-0.07,0.19,-0.01,0.00
1.535,0.07,0.46,0.87,-0.06,0.05,-0.08,-0.07,0.19,-0.01,0.00
1.574,0.07,0.46,0.87,-0.13,0.02,-0.07,-0.07,0.19,-0.01,0.00
1.574,0.06,0.46,0.89,-0.13,0.02,-0.07,-0.07,0.19,-0.01,0.00
1.574,0.06,0.46,0.89,-0.13,0.02,-0.07,-0.11,0.19,0.00,0.00
1.613,0.06,0.46,0.89,-0.02,0.05,0.26,-0.11,0.19,0.00,0.00
1.653,0.06,0.46,0.89,-0.02,0.05,0.26,-0.03,0.10,0.03,0.00
1.654,0.06,0.46,0.88,-0.02,0.05,0.26,-0.03,0.10,0.03,0.00
1.654,0.06,0.46,0.88,-0.03,0.08,0.09,-0.03,0.10,0.03,0.00
1.693,0.06,0.46,0.88,0.05,0.10,-0.18,-0.03,0.10,0.03,0.00
1.732,0.06,0.45,0.87,0.05,0.10,-0.18,-0.03,0.10,0.03,0.00
1.732,0.06,0.45,0.87,0.05,0.10,-0.18,-0.08,0.11,0.04,0.00
1.733,0.06,0.45,0.87,-0.00,0.03,-0.09,-0.08,0.11,0.04,0.00
1.772,0.06,0.45,0.87,-0.00,0.03,-0.09,-0.14,0.08,0.00,0.00
1.772,0.04,0.45,0.91,-0.00,0.03,-0.09,-0.14,0.08,0.00,0.00
1.772,0.04,0.45,0.91,0.07,-0.01,-0.12,-0.14,0.08,0.00,0.00
1.811,0.04,0.45,0.91,-0.20,0.05,0.29,-0.14,0.08,0.00,0.00
1.851,0.04,0.45,0.91,-0.20,0.05,0.29,-0.04,0.01,0.01,0.00
1.852,0.04,0.45,0.91,-0.16,-0.15,-0.12,-0.04,0.01,0.01,0.00
1.852,0.05,0.43,0.88,-0.16,-0.15,-0.12,-0.04,0.01,0.01,0.00
1.891,0.05,0.43,0.88,0.25,-0.04,-0.10,-0.04,0.01,0.01,0.00
1.93,0.04,0.45,0.89,0.25,-0.04,-0.10,-0.04,0.01,0.01,0.00
1.931,0.04,0.45,0.89,-0.10,0.10,0.03,-0.04,0.01,0.01,0.00
1.931,0.04,0.45,0.89,-0.10,0.10,0.03,-0.05,0.04,-0.02,0.00
1.97,0.06,0.44,0.89,-0.10,0.10,0.03,-0.05,0.04,-0.02,0.00
1.97,0.06,0.44,0.89,0.21,0.01,0.29,-0.05,0.04,-0.02,0.00
2.012,0.06,0.44,0.89,0.21,0.01,0.29,-0.02,0.00,-0.03,0.00
2.012,0.06,0.44,0.89,0.04,0.04,-0.09,-0.02,0.00,-0.03,0.00
2.049,0.06,0.44,0.89,0.04,0.04,-0.09,-0.03,0.03,-0.02,0.00
2.05,0.07,0.44,0.89,0.04,0.04,-0.09,-0.03,0.03,-0.02,0.00
2.05,0.07,0.44,0.89,0.10,0.02,0.02,-0.03,0.03,-0.02,0.00
2.088,0.07,0.44,0.89,0.23,0.02,-0.04,-0.03,0.03,-0.02,0.00
2.13,0.07,0.44,0.89,0.23,0.02,-0.04,-0.08,0.04,-0.01,0.00
2.131,0.05,0.43,0.89,0.23,0.02,-0.04,-0.08,0.04,-0.01,0.00
2.131,0.05,0.43,0.89,0.02,0.00,-0.05,-0.08,0.04,-0.01,0.00
2.167,0.05,0.43,0.90,0.02,0.00,-0.05,-0.08,0.04,-0.01,0.00
2.168,0.05,0.43,0.90,-0.01,0.01,-0.10,-0.08,0.04,-0.01,0.00
2.207,0.05,0.43,0.90,-0.01,0.01,-0.10,-0.09,0.05,0.00,0.00
2.208,0.05,0.43,0.90,0.00,0.04,0.03,-0.09,0.05,0.00,0.00
2.247,0.05,0.42,0.91,0.00,0.04,0.03,-0.09,0.05,0.00,0.00
2.247,0.05,0.42,0.91,0.00,0.04,0.03,-0.07,0.03,0.06,0.00
2.248,0.05,0.42,0.91,-0.03,0.09,0.20,-0.07,0.03,0.06,0.00
2.291,0.05,0.42,0.91,0.05,-0.07,-0.10,-0.07,0.03,0.06,0.00
2.325,0.05,0.42,0.91,0.05,-0.07,-0.10,-0.04,0.05,0.03,0.00
2.326,0.05,0.42,0.91,0.06,-0.04,0.28,-0.04,0.05,0.03,0.00
2.326,0.05,0.41,0.93,0.06,-0.04,0.28,-0.04,0.05,0.03,0.00
2.366,0.04,0.42,0.88,0.06,-0.04,0.28,-0.04,0.05,0.03,0.00
2.367,0.04,0.42,0.88,-0.26,-0.05,-0.03,-0.04,0.05,0.03,0.00
2.405,0.04,0.42,0.88,-0.00,0.05,-0.24,-0.04,0.05,0.03,0.00
2.405,0.04,0.42,0.88,-0.00,0.05,-0.24,-0.02,-0.01,0.03,0.00
2.444,0.04,0.42,0.88,-0.00,0.05,-0.24,-0.17,0.07,0.14,0.00
2.445,0.04,0.42,0.88,0.18,0.19,-0.03,-0.17,0.07,0.14,0.00
2.445,0.06,0.41,0.92,0.18,0.19,-0.03,-0.17,0.07,0.14,0.00
2.484,0.06,0.41,0.92,-0.00,-0.01,0.25,-0.17,0.07,0.14,0.00
2.524,0.06,0.41,0.92,-0.00,-0.01,0.25,-0.08,0.06,0.14,0.00
2.524,0.04,0.41,0.90,-0.00,-0.01,0.25,-0.08,0.06,0.14,0.00
2.525,0.04,0.41,0.90,-0.04,0.03,-0.00,-0.08,0.06,0.14,0.00
2.563,0.07,0.38,0.90,-0.04,0.03,-0.00,-0.08,0.06,0.14,0.00
2.564,0.07,0.38,0.90,0.10,0.13,-0.37,-0.08,0.06,0.14,0.00
2.603,0.07,0.38,0.90,0.10,0.13,-0.37,-0.00,0.32,0.19,0.00
2.603,0.07,0.38,0.90,0.34,-0.22,-0.05,-0.00,0.32,0.19,0.00
2.643,0.07,0.38,0.90,0.34,-0.22,-0.05,-0.02,0.28,0.14,0.00
2.644,-0.01,0.41,0.89,0.34,-0.22,-0.05,-0.02,0.28,0.14,0.00
2.644,-0.01,0.41,0.89,-0.52,0.02,-0.14,-0.02,0.28,0.14,0.00
2.682,-0.01,0.41,0.89,-0.19,0.12,-0.17,-0.02,0.28,0.14,0.00
2.721,0.00,0.40,0.94,-0.19,0.12,-0.17,-0.02,0.28,0.14,0.00
2.722,0.00,0.40,0.94,-0.19,0.12,-0.17,-0.13,0.09,0.42,0.00
2.722,0.00,0.40,0.94,-0.32,0.12,0.16,-0.13,0.09,0.42,0.00
2.76,0.00,0.40,0.94,0.25,0.02,0.67,-0.13,0.09,0.42,0.00
2.8,0.00,0.40,0.94,0.25,0.02,0.67,0.07,0.31,0.43,0.00
2.801,-0.02,0.40,0.92,0.25,0.02,0.67,0.07,0.31,0.43,0.00
2.801,-0.02,0.40,0.92,-0.32,-0.07,0.11,0.07,0.31,0.43,0.00
2.84,-0.02,0.40,0.92,-0.32,-0.07,0.11,0.07,0.24,0.41,0.00
2.841,-0.03,0.43,0.88,-0.32,-0.07,0.11,0.07,0.24,0.41,0.00
2.841,-0.03,0.43,0.88,-0.35,0.01,-0.92,0.07,0.24,0.41,0.00
2.879,-0.03,0.43,0.88,-0.26,0.34,0.04,0.07,0.24,0.41,0.00
2.918,-0.03,0.43,0.88,-0.26,0.34,0.04,0.05,0.14,0.32,0.00
2.919,-0.02,0.43,0.89,-0.26,0.34,0.04,0.05,0.14,0.32,0.00
2.919,-0.02,0.43,0.89,-0.20,0.16,0.46,0.05,0.14,0.32,0.00
2.958,-0.02,0.43,0.89,-0.39,0.37,-1.05,0.05,0.14,0.32,0.00
2.998,-0.04,0.46,0.81,-0.39,0.37,-1.05,0.05,0.14,0.32,0.00
2.998,-0.04,0.46,0.81,-0.39,0.37,-1.05,0.06,0.01,0.34,0.00
2.998,-0.04,0.46,0.81,-0.49,0.48,-0.97,0.06,0.01,0.34,0.00
3.038,0.03,0.46,0.92,-0.49,0.48,-0.97,0.06,0.01,0.34,0.00
3.038,0.03,0.46,0.92,-0.26,0.57,0.05,0.06,0.01,0.34,0.00
3.077,0.03,0.46,0.92,-0.26,0.57,0.05,-0.21,0.13,0.45,0.00
3.078,0.03,0.46,0.92,0.25,0.55,0.17,-0.21,0.13,0.45,0.00
3.117,0.03,0.46,0.92,0.25,0.55,0.17,-0.12,0.10,0.28,0.00
3.117,-0.01,0.47,0.87,0.25,0.55,0.17,-0.12,0.10,0.28,0.00
3.118,-0.01,0.47,0.87,-0.25,0.70,-0.43,-0.12,0.10,0.28,0.00
3.156,-0.01,0.47,0.87,-0.35,0.75,-0.45,-0.12,0.10,0.28,0.00
3.196,-0.01,0.47,0.87,0.13,1.00,-0.51,-0.12,0.10,0.28,0.00
3.197,0.03,0.48,0.86,0.13,1.00,-0.51,-0.12,0.10,0.28,0.00
3.198,0.03,0.48,0.86,0.13,1.00,-0.51,-0.20,-0.01,0.33,0.00
3.236,-0.03,0.47,0.82,0.13,1.00,-0.51,-0.20,-0.01,0.33,0.00
3.237,-0.03,0.47,0.82,-0.53,0.91,-0.41,-0.20,-0.01,0.33,0.00
3.275,-0.03,0.47,0.82,-0.79,1.03,-1.09,-0.20,-0.01,0.33,0.00
3.276,-0.03,0.47,0.82,-0.79,1.03,-1.09,-0.24,-0.12,0.29,0.00
3.315,-0.03,0.47,0.82,-0.79,1.03,-1.09,-0.45,-0.24,0.44,0.00
3.316,0.07,0.47,1.04,-0.79,1.03,-1.09,-0.45,-0.24,0.44,0.00
3.316,0.07,0.47,1.04,-0.50,1.40,0.46,-0.45,-0.24,0.44,0.00
3.354,0.07,0.47,1.04,0.70,0.98,1.68,-0.45,-0.24,0.44,0.00
3.394,0.07,0.47,1.04,0.70,0.98,1.68,0.25,0.11,0.14,0.00
3.394,0.12,0.43,0.97,0.70,0.98,1.68,0.25,0.11,0.14,0.00
3.395,0.12,0.43,0.97,0.73,0.57,0.58,0.25,0.11,0.14,0.00
3.433,0.03,0.44,0.97,0.73,0.57,0.58,0.25,0.11,0.14,0.00
3.434,0.03,0.44,0.97,-0.05,0.48,-0.05,0.25,0.11,0.14,0.00
3.473,0.03,0.44,0.97,-0.05,0.48,-0.05,0.41,0.02,-0.26,0.00
3.474,0.03,0.44,0.97,-0.26,0.44,0.63,0.41,0.02,-0.26,0.00
3.512,0.03,0.44,0.97,-0.26,0.44,0.63,0.29,-0.18,-0.28,0.00
3.513,0.04,0.43,0.98,-0.26,0.44,0.63,0.29,-0.18,-0.28,0.00
3.513,0.04,0.43,0.98,-0.07,0.00,1.00,0.29,-0.18,-0.28,0.00
3.551,0.04,0.43,0.98,-0.24,0.29,0.52,0.29,-0.18,-0.28,0.00
3.592,0.04,0.43,0.98,-0.24,0.29,0.52,0.38,0.09,-0.15,0.00
3.593,-0.02,0.39,0.82,-0.24,0.29,0.52,0.38,0.09,-0.15,0.00
3.593,-0.02,0.39,0.82,-0.55,-0.26,-0.89,0.38,0.09,-0.15,0.00
3.63,0.05,0.28,1.02,-0.55,-0.26,-0.89,0.38,0.09,-0.15,0.00
3.631,0.05,0.28,1.02,-0.76,-0.99,-0.37,0.38,0.09,-0.15,0.00
3.67,0.05,0.28,1.02,-0.76,-0.99,-0.37,-0.22,0.30,0.13,0.00
3.671,0.05,0.28,1.02,0.22,-1.37,1.25,-0.22,0.30,0.13,0.00
3.71,0.05,0.28,1.02,0.22,-1.37,1.25,0.21,-0.11,-0.12,0.00
3.711,0.05,0.28,1.02,0.47,-1.45,0.64,0.21,-0.11,-0.12,0.00
3.711,0.10,0.32,0.86,0.47,-1.45,0.64,0.21,-0.11,-0.12,0.00
3.75,0.10,0.32,0.86,0.83,-0.81,-1.11,0.21,-0.11,-0.12,0.00
3.79,0.10,0.32,0.86,0.83,-0.81,-1.11,0.15,0.09,-0.21,0.00
3.791,-0.01,0.37,0.80,0.83,-0.81,-1.11,0.15,0.09,-0.21,0.00
3.791,-0.01,0.37,0.80,-0.53,-0.57,-0.96,0.15,0.09,-0.21,0.00
3.829,0.15,0.35,0.97,-0.53,-0.57,-0.96,0.15,0.09,-0.21,0.00
3.83,0.15,0.35,0.97,-0.05,-0.59,-0.85,0.15,0.09,-0.21,0.00
3.868,0.15,0.35,0.97,-0.05,-0.59,-0.85,-0.33,-0.05,0.14,0.00
3.869,0.15,0.35,0.97,1.16,-0.57,0.67,-0.33,-0.05,0.14,0.00
3.908,0.15,0.35,0.97,0.83,-0.29,0.25,-0.33,-0.05,0.14,0.00
3.908,0.03,0.41,0.87,0.83,-0.29,0.25,-0.33,-0.05,0.14,0.00
3.908,0.03,0.41,0.87,0.83,-0.29,0.25,0.04,0.39,-0.08,0.00
3.947,0.03,0.41,0.87,-0.18,0.11,-0.66,0.04,0.39,-0.08,0.00
3.987,0.03,0.41,0.87,-0.18,0.11,-0.66,-0.04,-0.06,-0.02,0.00
3.987,0.03,0.41,0.87,0.11,0.20,0.01,-0.04,-0.06,-0.02,0.00
3.988,0.05,0.43,0.90,0.11,0.20,0.01,-0.04,-0.06,-0.02,0.00
4.027,0.05,0.43,0.90,0.87,0.22,-0.14,-0.04,-0.06,-0.02,0.00
4.066,0.05,0.43,0.90,0.87,0.22,-0.14,0.22,0.14,-0.09,0.00
4.067,0.04,0.47,0.84,0.87,0.22,-0.14,0.22,0.14,-0.09,0.00
4.067,0.04,0.47,0.84,0.42,0.49,-0.62,0.22,0.14,-0.09,0.00
4.106,0.04,0.47,0.84,0.42,0.49,-0.62,0.12,0.13,-0.02,0.00
4.107,0.03,0.47,0.90,0.42,0.49,-0.62,0.12,0.13,-0.02,0.00
4.107,0.03,0.47,0.90,-0.17,0.50,0.10,0.12,0.13,-0.02,0.00
4.145,0.03,0.47,0.90,0.47,0.24,0.07,0.12,0.13,-0.02,0.00
4.184,0.03,0.47,0.90,0.47,0.24,0.07,0.14,0.09,-0.06,0.00
4.185,0.03,0.47,0.94,0.47,0.24,0.07,0.14,0.09,-0.06,0.00
4.185,0.03,0.47,0.94,0.47,0.31,0.44,0.14,0.09,-0.06,0.00
4.223,0.03,0.47,0.94,0.26,0.10,0.57,0.14,0.09,-0.06,0.00
4.263,0.03,0.47,0.94,0.26,0.10,0.57,0.26,-0.04,-0.11,0.00
4.264,0.04,0.47,0.87,0.26,0.10,0.57,0.26,-0.04,-0.11,0.00
4.264,0.04,0.47,0.87,0.41,0.11,-0.15,0.26,-0.04,-0.11,0.00
4.303,0.04,0.37,0.96,0.41,0.11,-0.15,0.26,-0.04,-0.11,0.00
4.303,0.04,0.37,0.96,0.74,-0.18,0.51,0.26,-0.04,-0.11,0.00
4.342,0.04,0.37,0.96,0.74,-0.18,0.51,0.08,0.19,-0.14,0.00
4.342,0.04,0.37,0.96,0.57,-1.05,0.86,0.08,0.19,-0.14,0.00
4.382,0.04,0.37,0.96,0.57,-1.05,0.86,0.01,0.15,-0.39,0.00
4.383,0.03,0.27,0.94,0.57,-1.05,0.86,0.01,0.15,-0.39,0.00
4.383,0.03,0.27,0.94,0.92,-1.91,0.04,0.01,0.15,-0.39,0.00
4.424,0.03,0.27,0.94,0.60,-1.79,1.10,0.01,0.15,-0.39,0.00
4.461,0.03,0.27,0.94,0.60,-1.79,1.10,0.08,0.05,-0.66,0.00
4.461,0.03,0.27,0.94,-0.02,-1.66,0.05,0.08,0.05,-0.66,0.00
4.462,-0.06,0.29,0.87,-0.02,-1.66,0.05,0.08,0.05,-0.66,0.00
4.501,-0.06,0.29,0.87,0.19,-0.95,-1.24,0.08,0.05,-0.66,0.00
4.502,-0.06,0.38,0.97,0.19,-0.95,-1.24,0.08,0.05,-0.66,0.00
4.542,-0.06,0.38,0.97,0.19,-0.95,-1.24,-0.14,-0.60,-0.73,0.00
4.542,-0.06,0.38,0.97,-0.17,-0.56,1.23,-0.14,-0.60,-0.73,0.00
4.579,-0.06,0.38,0.97,0.30,-0.93,0.49,-0.14,-0.60,-0.73,0.00
4.58,-0.06,0.38,0.97,0.30,-0.93,0.49,-0.02,-0.36,-0.65,0.00
4.58,-0.01,0.33,0.89,0.30,-0.93,0.49,-0.02,-0.36,-0.65,0.00
4.619,-0.01,0.33,0.89,0.36,-1.04,-0.46,-0.02,-0.36,-0.65,0.00
4.66,-0.01,0.32,1.05,0.36,-1.04,-0.46,-0.02,-0.36,-0.65,0.00
4.661,-0.01,0.32,1.05,0.36,-1.04,-0.46,-0.28,-0.40,-0.90,0.00
4.661,-0.01,0.32,1.05,0.31,-0.85,1.56,-0.28,-0.40,-0.90,0.00
4.698,-0.02,0.34,0.89,0.31,-0.85,1.56,-0.28,-0.40,-0.90,0.00
4.698,-0.02,0.34,0.89,0.49,-0.88,0.90,-0.28,-0.40,-0.90,0.00
4.737,-0.02,0.34,0.89,0.49,-0.88,0.90,-0.02,-0.63,-1.26,0.00
4.738,-0.02,0.34,0.89,0.21,-0.57,-0.25,-0.02,-0.63,-1.26,0.00
4.777,-0.02,0.34,0.89,0.21,-0.57,-0.25,-0.13,-0.69,-1.42,0.00
4.778,0.03,0.31,0.95,0.21,-0.57,-0.25,-0.13,-0.69,-1.42,0.00
4.778,0.03,0.31,0.95,0.28,-0.51,0.15,-0.13,-0.69,-1.42,0.00
4.817,0.03,0.31,0.95,0.89,-0.96,0.55,-0.13,-0.69,-1.42,0.00
4.856,0.03,0.31,0.95,0.89,-0.96,0.55,-0.02,-0.72,-1.72,0.00
4.857,0.03,0.26,0.97,0.89,-0.96,0.55,-0.02,-0.72,-1.72,0.00
4.857,0.03,0.26,0.97,0.70,-1.13,0.38,-0.02,-0.72,-1.72,0.00
4.896,0.00,0.21,0.97,0.70,-1.13,0.38,-0.02,-0.72,-1.72,0.00
4.897,0.00,0.21,0.97,0.50,-1.16,1.08,-0.02,-0.72,-1.72,0.00
4.935,0.00,0.21,0.97,0.50,-1.16,1.08,-0.04,-0.81,-2.01,0.00
4.936,0.00,0.21,0.97,0.37,-1.50,0.40,-0.04,-0.81,-2.01,0.00
4.976,0.00,0.21,0.97,0.37,-1.50,0.40,-0.14,-0.91,-2.17,0.00
4.977,-0.01,0.18,1.01,0.37,-1.50,0.40,-0.14,-0.91,-2.17,0.00
4.977,-0.01,0.18,1.01,-0.18,-1.49,0.79,-0.14,-0.91,-2.17,0.00
5.014,-0.01,0.18,1.01,0.37,-1.83,0.86,-0.14,-0.91,-2.17,0.00
5.054,-0.03,0.19,0.92,0.37,-1.83,0.86,-0.14,-0.91,-2.17,0.00
5.055,-0.03,0.19,0.92,0.25,-1.61,-0.55,-0.14,-0.91,-2.17,0.00
5.055,-0.03,0.19,0.92,0.25,-1.61,-0.55,-0.07,-0.84,-2.27,0.00
5.094,-0.03,0.19,0.92,-0.23,-0.91,0.87,-0.07,-0.84,-2.27,0.00
5.133,-0.03,0.19,0.92,-0.23,-0.91,0.87,-0.25,-0.69,-2.14,0.00
5.134,-0.03,0.19,0.92,0.06,-1.17,0.52,-0.25,-0.69,-2.14,0.00
5.134,-0.03,0.19,0.99,0.06,-1.17,0.52,-0.25,-0.69,-2.14,0.00
5.173,-0.03,0.19,0.99,0.06,-1.17,0.52,-0.08,-0.76,-2.10,0.00
5.174,0.05,0.21,0.96,0.06,-1.17,0.52,-0.08,-0.76,-2.10,0.00
5.174,0.05,0.21,0.96,1.40,-1.16,-0.19,-0.08,-0.76,-2.10,0.00
5.212,0.05,0.21,0.96,0.45,-0.75,0.27,-0.08,-0.76,-2.10,0.00
5.251,0.05,0.21,0.96,0.54,-0.20,-0.04,-0.08,-0.76,-2.10,0.00
5.252,0.03,0.29,0.93,0.54,-0.20,-0.04,-0.08,-0.76,-2.10,0.00
5.253,0.03,0.29,0.93,0.54,-0.20,-0.04,0.10,-0.67,-2.04,0.00
5.292,0.03,0.29,0.93,0.73,-0.02,-0.25,0.10,-0.67,-2.04,0.00
5.331,0.03,0.29,0.93,0.73,-0.02,-0.25,-0.03,-0.38,-1.79,0.00
5.332,0.05,0.30,1.07,0.73,-0.02,-0.25,-0.03,-0.38,-1.79,0.00
5.332,0.05,0.30,1.07,0.86,0.03,1.28,-0.03,-0.38,-1.79,0.00
5.37,0.07,0.25,0.99,0.86,0.03,1.28,-0.03,-0.38,-1.79,0.00
5.37,0.07,0.25,0.99,0.66,-0.26,0.58,-0.03,-0.38,-1.79,0.00
5.41,0.07,0.25,0.99,0.66,-0.26,0.58,-0.18,-0.57,-1.74,0.00
5.41,0.07,0.25,0.99,1.07,-0.29,0.34,-0.18,-0.57,-1.74,0.00
5.45,0.07,0.25,0.99,1.16,-0.03,0.10,-0.18,-0.57,-1.74,0.00
5.45,0.07,0.29,0.95,1.16,-0.03,0.10,-0.18,-0.57,-1.74,0.00
5.451,0.07,0.29,0.95,1.16,-0.03,0.10,0.09,-0.54,-1.66,0.00
5.489,0.07,0.29,0.95,0.76,0.10,-0.12,0.09,-0.54,-1.66,0.00
5.529,0.02,0.31,0.96,0.76,0.10,-0.12,0.09,-0.54,-1.66,0.00
5.529,0.02,0.31,0.96,0.76,0.10,-0.12,0.17,-0.29,-1.51,0.00
5.529,0.02,0.31,0.96,0.57,0.11,0.12,0.17,-0.29,-1.51,0.00
5.568,0.05,0.33,0.91,0.57,0.11,0.12,0.17,-0.29,-1.51,0.00
5.569,0.05,0.33,0.91,0.59,0.21,0.08,0.17,-0.29,-1.51,0.00
5.607,0.05,0.33,0.91,0.83,0.33,-0.50,0.17,-0.29,-1.51,0.00
5.608,0.05,0.33,0.91,0.83,0.33,-0.50,0.09,-0.52,-1.42,0.00
5.647,0.02,0.35,0.91,0.83,0.33,-0.50,0.09,-0.52,-1.42,0.00
5.647,0.02,0.35,0.91,0.59,0.58,-0.23,0.09,-0.52,-1.42,0.00
5.648,0.02,0.35,0.91,0.59,0.58,-0.23,0.05,-0.33,-1.39,0.00
5.687,0.02,0.35,0.91,0.48,0.46,-0.53,0.05,-0.33,-1.39,0.00
5.728,-0.01,0.32,0.86,0.48,0.46,-0.53,0.05,-0.33,-1.39,0.00
5.729,-0.01,0.32,0.86,0.48,0.46,-0.53,0.03,-0.37,-1.32,0.00
5.729,-0.01,0.32,0.86,0.33,0.17,-0.83,0.03,-0.37,-1.32,0.00
5.766,-0.01,0.32,0.86,-0.08,0.32,-1.04,0.03,-0.37,-1.32,0.00
5.767,0.03,0.29,0.92,-0.08,0.32,-1.04,0.03,-0.37,-1.32,0.00
5.805,0.03,0.29,0.92,-0.08,0.32,-1.04,-0.12,-0.31,-1.17,0.00
5.806,0.03,0.29,0.92,0.83,0.04,-0.18,-0.12,-0.31,-1.17,0.00
5.845,0.03,0.29,0.92,0.83,0.04,-0.18,-0.20,-0.28,-1.07,0.00
5.846,0.03,0.29,0.92,0.09,0.22,0.71,-0.20,-0.28,-1.07,0.00
5.846,-0.05,0.27,1.04,0.09,0.22,0.71,-0.20,-0.28,-1.07,0.00
5.884,-0.05,0.27,1.04,-0.26,-0.11,1.00,-0.20,-0.28,-1.07,0.00
5.924,-0.09,0.24,1.05,-0.26,-0.11,1.00,-0.20,-0.28,-1.07,0.00
5.925,-0.09,0.24,1.05,-0.26,-0.11,1.00,0.02,-0.22,-0.93,0.00
5.925,-0.09,0.24,1.05,-0.33,-0.28,0.98,0.02,-0.22,-0.93,0.00
5.963,-0.13,0.24,1.04,-0.33,-0.28,0.98,0.02,-0.22,-0.93,0.00
5.964,-0.13,0.24,1.04,-0.90,-0.35,0.89,0.02,-0.22,-0.93,0.00
6.003,-0.13,0.24,1.04,-0.90,-0.35,0.89,0.15,-0.28,-0.82,0.00
6.004,-0.13,0.24,1.04,-0.90,-0.39,0.86,0.15,-0.28,-0.82,0.00
6.043,-0.13,0.24,1.04,-0.90,-0.39,0.86,0.24,-0.26,-0.73,0.00
6.043,-0.15,0.24,0.95,-0.90,-0.39,0.86,0.24,-0.26,-0.73,0.00
6.044,-0.15,0.24,0.95,-1.08,-0.44,0.62,0.24,-0.26,-0.73,0.00
6.082,-0.15,0.24,0.95,-1.07,-0.42,-0.50,0.24,-0.26,-0.73,0.00
6.122,-0.15,0.24,0.95,-1.07,-0.42,-0.50,0.09,-0.17,-0.62,0.00
6.122,-0.15,0.24,0.95,-1.32,-0.19,0.02,0.09,-0.17,-0.62,0.00
6.123,-0.18,0.27,0.96,-1.32,-0.19,0.02,0.09,-0.17,-0.62,0.00
6.162,-0.18,0.27,0.96,-1.13,-0.10,0.33,0.09,-0.17,-0.62,0.00
6.162,-0.12,0.28,0.87,-1.13,-0.10,0.33,0.09,-0.17,-0.62,0.00
6.201,-0.12,0.28,0.87,-1.13,-0.10,0.33,0.04,-0.14,-0.48,0.00
6.202,-0.12,0.28,0.87,-0.74,-0.05,-0.78,0.04,-0.14,-0.48,0.00
6.24,-0.12,0.28,0.87,-0.74,-0.05,-0.78,-0.06,-0.21,-0.50,0.00
6.241,-0.12,0.28,0.87,-0.67,0.21,-0.85,-0.06,-0.21,-0.50,0.00
6.242,-0.10,0.34,0.86,-0.67,0.21,-0.85,-0.06,-0.21,-0.50,0.00
6.28,-0.10,0.34,0.86,-0.51,0.62,-0.88,-0.06,-0.21,-0.50,0.00
6.319,-0.10,0.34,0.86,-0.59,0.69,-1.02,-0.06,-0.21,-0.50,0.00
6.32,-0.09,0.36,0.87,-0.59,0.69,-1.02,-0.06,-0.21,-0.50,0.00
6.321,-0.09,0.36,0.87,-0.59,0.69,-1.02,-0.04,-0.14,-0.48,0.00
6.359,-0.09,0.36,0.87,-0.14,0.76,-0.28,-0.04,-0.14,-0.48,0.00
6.399,-0.06,0.37,0.89,-0.14,0.76,-0.28,-0.04,-0.14,-0.48,0.00
6.4,-0.06,0.37,0.89,-0.03,0.77,-0.52,-0.04,-0.14,-0.48,0.00
6.401,-0.06,0.37,0.89,-0.03,0.77,-0.52,0.07,-0.10,-0.51,0.00
6.438,-0.06,0.37,0.89,-0.03,0.77,-0.52,0.09,-0.14,-0.47,0.00
6.439,-0.06,0.37,0.89,-0.74,1.37,-0.68,0.09,-0.14,-0.47,0.00
6.439,-0.09,0.42,1.00,-0.74,1.37,-0.68,0.09,-0.14,-0.47,0.00
6.478,-0.09,0.42,1.00,-0.19,1.11,0.93,0.09,-0.14,-0.47,0.00
6.518,-0.09,0.42,1.00,-0.19,1.11,0.93,0.21,-0.36,-0.45,0.00
6.518,-0.06,0.42,0.99,-0.19,1.11,0.93,0.21,-0.36,-0.45,0.00
6.519,-0.06,0.42,0.99,-0.20,1.06,0.48,0.21,-0.36,-0.45,0.00
6.557,-0.06,0.42,0.99,-0.27,0.93,0.39,0.21,-0.36,-0.45,0.00
6.597,-0.06,0.42,0.99,-0.27,0.93,0.39,0.31,-0.16,-0.48,0.00
6.597,-0.07,0.37,1.04,-0.27,0.93,0.39,0.31,-0.16,-0.48,0.00
6.598,-0.07,0.37,1.04,-0.29,0.38,0.96,0.31,-0.16,-0.48,0.00
6.636,0.03,0.34,0.86,-0.29,0.38,0.96,0.31,-0.16,-0.48,0.00
6.637,0.03,0.34,0.86,0.19,-0.09,1.38,0.31,-0.16,-0.48,0.00
6.676,0.03,0.34,0.86,0.19,-0.09,1.38,0.46,-0.20,-0.52,0.00
6.676,0.03,0.34,0.86,0.77,-0.17,-1.20,0.46,-0.20,-0.52,0.00
6.715,0.03,0.34,0.86,0.77,-0.17,-1.20,-0.05,-0.20,-0.64,0.00
6.715,-0.03,0.29,1.01,0.77,-0.17,-1.20,-0.05,-0.20,-0.64,0.00
6.715,-0.03,0.29,1.01,0.27,-0.20,0.08,-0.05,-0.20,-0.64,0.00
6.756,-0.03,0.29,1.01,-0.01,-1.15,1.50,-0.05,-0.20,-0.64,0.00
6.795,-0.03,0.29,1.01,-0.01,-1.15,1.50,0.10,-0.14,-0.65,0.00
6.795,0.00,0.23,0.91,-0.01,-1.15,1.50,0.10,-0.14,-0.65,0.00
6.796,0.00,0.23,0.91,0.48,-1.31,-0.12,0.10,-0.14,-0.65,0.00
6.835,0.03,0.30,0.85,0.48,-1.31,-0.12,0.10,-0.14,-0.65,0.00
6.836,0.03,0.30,0.85,0.60,-0.73,-0.94,0.10,-0.14,-0.65,0.00
6.873,0.03,0.30,0.85,0.60,-0.73,-0.94,0.05,-0.31,-0.67,0.00
6.874,0.03,0.30,0.85,0.80,-0.50,-0.74,0.05,-0.31,-0.67,0.00
6.913,-0.02,0.29,0.90,0.80,-0.50,-0.74,0.05,-0.31,-0.67,0.00
6.913,-0.02,0.29,0.90,0.80,-0.50,-0.74,-0.11,-0.04,-0.51,0.00
6.913,-0.02,0.29,0.90,0.45,-0.61,-0.67,-0.11,-0.04,-0.51,0.00
6.952,-0.02,0.29,0.90,0.29,-0.53,0.06,-0.11,-0.04,-0.51,0.00
6.992,-0.02,0.29,0.90,0.29,-0.53,0.06,-0.10,-0.20,-0.44,0.00
6.993,0.01,0.32,0.85,0.29,-0.53,0.06,-0.10,-0.20,-0.44,0.00
6.993,0.01,0.32,0.85,0.47,-0.25,-0.81,-0.10,-0.20,-0.44,0.00
7.031,0.01,0.37,0.80,0.47,-0.25,-0.81,-0.10,-0.20,-0.44,0.00
7.031,0.01,0.37,0.80,0.63,0.15,-0.79,-0.10,-0.20,-0.44,0.00
7.071,0.01,0.37,0.80,0.63,0.15,-0.79,-0.05,-0.21,-0.46,0.00
7.072,0.01,0.37,0.80,0.50,0.42,-1.30,-0.05,-0.21,-0.46,0.00
7.11,0.01,0.37,0.80,0.50,0.42,-1.30,-0.09,0.00,-0.33,0.00
7.111,-0.04,0.42,0.91,0.50,0.42,-1.30,-0.09,0.00,-0.33,0.00
7.112,-0.04,0.42,0.91,0.05,0.86,-0.31,-0.09,0.00,-0.33,0.00
7.149,-0.04,0.42,0.91,0.04,0.91,-0.12,-0.09,0.00,-0.33,0.00
7.19,-0.04,0.42,0.91,0.04,0.91,-0.12,-0.12,-0.06,-0.16,0.00
7.19,-0.09,0.43,0.98,0.04,0.91,-0.12,-0.12,-0.06,-0.16,0.00
7.191,-0.09,0.43,0.98,-0.35,1.06,0.03,-0.12,-0.06,-0.16,0.00
7.229,-0.04,0.41,0.96,-0.35,1.06,0.03,-0.12,-0.06,-0.16,0.00
7.23,-0.04,0.41,0.96,-0.40,1.11,1.54,-0.12,-0.06,-0.16,0.00
7.269,-0.04,0.41,0.96,-0.40,1.11,1.54,0.05,0.06,0.02,0.00
7.27,-0.04,0.41,0.96,0.15,0.77,0.24,0.05,0.06,0.02,0.00
7.308,-0.04,0.41,0.96,0.15,0.77,0.24,0.01,0.15,0.08,0.00
7.309,-0.06,0.39,1.04,0.15,0.77,0.24,0.01,0.15,0.08,0.00
7.31,-0.06,0.39,1.04,0.22,0.62,0.09,0.01,0.15,0.08,0.00
7.347,-0.06,0.39,1.04,-0.04,0.42,1.59,0.01,0.15,0.08,0.00
7.387,-0.06,0.31,1.01,-0.04,0.42,1.59,0.01,0.15,0.08,0.00
7.388,-0.06,0.31,1.01,-0.04,0.42,1.59,0.04,0.28,0.14,0.00
7.388,-0.06,0.31,1.01,0.24,-0.07,1.24,0.04,0.28,0.14,0.00
7.426,-0.06,0.31,1.01,-0.02,-0.81,-0.32,0.04,0.28,0.14,0.00
7.466,-0.06,0.31,1.01,-0.02,-0.81,-0.32,-0.00,0.13,0.15,0.00
7.467,-0.13,0.21,0.94,-0.02,-0.81,-0.32,-0.00,0.13,0.15,0.00
7.467,-0.13,0.21,0.94,-0.49,-1.21,0.01,-0.00,0.13,0.15,0.00
7.506,-0.13,0.21,0.94,-0.49,-1.21,0.01,0.16,0.05,0.08,0.00
7.506,-0.13,0.26,0.92,-0.49,-1.21,0.01,0.16,0.05,0.08,0.00
7.507,-0.13,0.26,0.92,0.10,-0.97,1.37,0.16,0.05,0.08,0.00
7.545,-0.13,0.26,0.92,-0.70,-0.81,-0.77,0.16,0.05,0.08,0.00
7.585,-0.13,0.26,0.92,-0.70,-0.81,-0.77,0.04,-0.02,0.17,0.00
7.586,-0.16,0.30,0.78,-0.70,-0.81,-0.77,0.04,-0.02,0.17,0.00
7.586,-0.16,0.30,0.78,-1.14,-0.47,-1.93,0.04,-0.02,0.17,0.00
7.625,-0.16,0.30,0.78,-0.39,-0.15,-0.67,0.04,-0.02,0.17,0.00
7.664,-0.16,0.30,0.78,-0.39,-0.15,-0.67,-0.27,0.01,0.37,0.00
7.664,-0.16,0.30,0.78,-0.10,0.03,-0.41,-0.27,0.01,0.37,0.00
7.664,-0.09,0.33,0.88,-0.10,0.03,-0.41,-0.27,0.01,0.37,0.00
7.704,-0.10,0.36,0.87,-0.10,0.03,-0.41,-0.27,0.01,0.37,0.00
7.704,-0.10,0.36,0.87,-0.66,0.20,-1.58,-0.27,0.01,0.37,0.00
7.743,-0.10,0.36,0.87,-0.66,0.20,-1.58,-0.21,0.02,0.33,0.00
7.744,-0.10,0.36,0.87,-0.24,0.56,-0.41,-0.21,0.02,0.33,0.00
7.783,-0.10,0.36,0.87,-0.24,0.56,-0.41,-0.13,-0.08,0.21,0.00
7.783,-0.10,0.36,0.87,-0.08,0.73,0.36,-0.13,-0.08,0.21,0.00
7.784,-0.09,0.41,0.98,-0.08,0.73,0.36,-0.13,-0.08,0.21,0.00
7.822,-0.09,0.41,0.98,-0.60,1.20,0.57,-0.13,-0.08,0.21,0.00
7.861,-0.09,0.45,0.96,-0.60,1.20,0.57,-0.13,-0.08,0.21,0.00
7.862,-0.09,0.45,0.96,-0.60,1.20,0.57,0.22,-0.11,0.06,0.00
7.862,-0.09,0.45,0.96,-0.37,1.17,0.18,0.22,-0.11,0.06,0.00
7.901,-0.08,0.42,1.11,-0.37,1.17,0.18,0.22,-0.11,0.06,0.00
7.902,-0.08,0.42,1.11,-0.23,0.94,0.67,0.22,-0.11,0.06,0.00
7.94,-0.08,0.42,1.11,-0.23,0.94,0.67,0.28,-0.09,0.00,0.00
7.941,-0.08,0.42,1.11,-0.28,0.50,2.01,0.28,-0.09,0.00,0.00
7.98,-0.08,0.42,1.11,-0.28,0.50,2.01,0.52,-0.10,-0.09,0.00
7.981,0.00,0.40,0.96,-0.28,0.50,2.01,0.52,-0.10,-0.09,0.00
7.982,0.00,0.40,0.96,0.39,0.32,1.09,0.52,-0.10,-0.09,0.00
8.02,0.00,0.40,0.96,0.50,0.01,-0.25,0.52,-0.10,-0.09,0.00
8.059,0.00,0.40,0.96,0.50,0.01,-0.25,0.21,0.06,-0.16,0.00
8.06,-0.03,0.30,1.01,0.50,0.01,-0.25,0.21,0.06,-0.16,0.00
8.06,-0.03,0.30,1.01,0.25,-0.81,0.92,0.21,0.06,-0.16,0.00
8.099,-0.03,0.30,1.01,0.27,-1.66,0.63,0.21,0.06,-0.16,0.00
8.1,0.01,0.28,0.89,0.27,-1.66,0.63,0.21,0.06,-0.16,0.00
8.141,0.01,0.28,0.89,0.27,-1.66,0.63,0.29,0.01,-0.26,0.00
8.142,0.01,0.28,0.89,0.70,-1.15,-0.32,0.29,0.01,-0.26,0.00
8.178,0.01,0.28,0.89,0.70,-1.15,-0.32,0.10,-0.11,-0.35,0.00
8.179,0.02,0.33,0.83,0.70,-1.15,-0.32,0.10,-0.11,-0.35,0.00
8.179,0.02,0.33,0.83,1.38,-1.00,-0.43,0.10,-0.11,-0.35,0.00
8.217,0.02,0.33,0.83,0.33,-0.62,-0.96,0.10,-0.11,-0.35,0.00
8.257,0.02,0.33,0.83,0.02,-0.76,-0.38,0.10,-0.11,-0.35,0.00
8.258,-0.05,0.32,0.86,0.02,-0.76,-0.38,0.10,-0.11,-0.35,0.00
8.258,-0.05,0.32,0.86,0.02,-0.76,-0.38,-0.04,0.04,-0.29,0.00
8.297,-0.03,0.37,0.74,0.02,-0.76,-0.38,-0.04,0.04,-0.29,0.00
8.298,-0.03,0.37,0.74,0.85,-0.80,-0.79,-0.04,0.04,-0.29,0.00
8.336,-0.03,0.37,0.74,0.85,-0.80,-0.79,-0.05,-0.22,-0.29,0.00
8.337,-0.03,0.37,0.74,0.35,-0.19,-1.74,-0.05,-0.22,-0.29,0.00
8.376,-0.08,0.42,0.81,0.35,-0.19,-1.74,-0.05,-0.22,-0.29,0.00
8.377,-0.08,0.42,0.81,-0.22,0.33,-0.92,-0.05,-0.22,-0.29,0.00
8.377,-0.08,0.42,0.81,-0.22,0.33,-0.92,-0.07,0.05,-0.24,0.00
8.416,-0.08,0.42,0.81,-0.03,0.35,-0.94,-0.07,0.05,-0.24,0.00
8.454,-0.08,0.42,0.81,-0.03,0.35,-0.94,-0.04,-0.03,-0.11,0.00
8.455,-0.08,0.42,0.81,-0.01,0.66,0.15,-0.04,-0.03,-0.11,0.00
8.455,-0.08,0.45,0.94,-0.01,0.66,0.15,-0.04,-0.03,-0.11,0.00
8.494,-0.13,0.45,0.88,-0.01,0.66,0.15,-0.04,-0.03,-0.11,0.00
8.495,-0.13,0.45,0.88,-0.09,0.62,0.75,-0.04,-0.03,-0.11,0.00
8.534,-0.13,0.45,0.88,-0.09,0.62,0.75,0.15,0.16,-0.00,0.00
8.535,-0.13,0.45,0.88,-0.44,0.51,-0.22,0.15,0.16,-0.00,0.00
8.574,-0.11,0.43,1.05,-0.44,0.51,-0.22,0.15,0.16,-0.00,0.00
8.574,-0.11,0.43,1.05,-0.44,0.51,-0.22,-0.17,0.16,0.17,0.00
8.575,-0.11,0.43,1.05,-0.76,0.50,0.66,-0.17,0.16,0.17,0.00
8.613,-0.11,0.43,1.05,0.01,0.36,1.78,-0.17,0.16,0.17,0.00
8.652,-0.11,0.43,1.05,0.01,0.36,1.78,-0.17,0.26,0.26,0.00
8.653,-0.12,0.35,1.07,0.01,0.36,1.78,-0.17,0.26,0.26,0.00
8.653,-0.12,0.35,1.07,-0.20,-0.06,1.20,-0.17,0.26,0.26,0.00
8.692,-0.12,0.35,1.07,-0.11,-0.65,2.14,-0.17,0.26,0.26,0.00
8.731,-0.05,0.25,1.03,-0.11,-0.65,2.14,-0.17,0.26,0.26,0.00
8.732,-0.05,0.25,1.03,-0.11,-0.65,2.14,-0.04,0.21,0.30,0.00
8.732,-0.05,0.25,1.03,0.41,-1.28,1.26,-0.04,0.21,0.30,0.00
8.771,-0.11,0.31,0.84,0.41,-1.28,1.26,-0.04,0.21,0.30,0.00
8.772,-0.11,0.31,0.84,0.41,-1.28,1.26,0.14,-0.14,0.09,0.00
8.772,-0.11,0.31,0.84,0.56,-1.26,-1.45,0.14,-0.14,0.09,0.00
8.811,-0.11,0.31,0.84,-0.48,-0.50,-0.48,0.14,-0.14,0.09,0.00
8.85,-0.11,0.31,0.84,-0.48,-0.50,-0.48,-0.10,0.07,0.20,0.00
8.85,-0.09,0.35,0.87,-0.48,-0.50,-0.48,-0.10,0.07,0.20,0.00
8.851,-0.09,0.35,0.87,-0.09,-0.39,-0.63,-0.10,0.07,0.20,0.00
8.89,-0.09,0.35,0.87,0.10,-0.20,-0.10,-0.10,0.07,0.20,0.00
8.93,-0.11,0.40,0.85,0.10,-0.20,-0.10,-0.10,0.07,0.20,0.00
8.93,-0.11,0.40,0.85,0.10,-0.20,-0.10,-0.07,-0.02,0.18,0.00
8.931,-0.11,0.40,0.85,-0.34,0.23,-0.51,-0.07,-0.02,0.18,0.00
8.969,-0.06,0.39,0.88,-0.34,0.23,-0.51,-0.07,-0.02,0.18,0.00
8.97,-0.06,0.39,0.88,0.05,0.16,-1.35,-0.07,-0.02,0.18,0.00
9.008,-0.06,0.39,0.88,0.05,0.16,-1.35,-0.13,-0.08,0.25,0.00
9.009,-0.06,0.39,0.88,0.20,0.20,-0.06,-0.13,-0.08,0.25,0.00
9.048,-0.06,0.39,0.88,0.20,0.20,-0.06,0.06,-0.18,0.07,0.00
9.049,-0.06,0.43,0.87,0.20,0.20,-0.06,0.06,-0.18,0.07,0.00
9.049,-0.06,0.43,0.87,0.10,0.25,-0.34,0.06,-0.18,0.07,0.00
9.088,-0.06,0.43,0.87,-0.03,0.72,-0.55,0.06,-0.18,0.07,0.00
9.127,-0.06,0.43,0.87,-0.03,0.72,-0.55,0.16,-0.19,-0.04,0.00
9.128,-0.07,0.45,0.95,-0.03,0.72,-0.55,0.16,-0.19,-0.04,0.00
9.128,-0.07,0.45,0.95,-0.18,0.60,0.21,0.16,-0.19,-0.04,0.00
9.166,-0.06,0.40,1.04,-0.18,0.60,0.21,0.16,-0.19,-0.04,0.00
9.167,-0.06,0.40,1.04,-0.17,0.28,1.33,0.16,-0.19,-0.04,0.00
9.206,-0.06,0.40,1.04,-0.17,0.28,1.33,0.25,-0.22,-0.13,0.00
9.207,-0.06,0.40,1.04,-0.17,-0.12,1.36,0.25,-0.22,-0.13,0.00
9.25,-0.06,0.40,1.04,-0.17,-0.12,1.36,0.37,-0.28,-0.26,0.00
9.25,0.03,0.42,0.94,-0.17,-0.12,1.36,0.37,-0.28,-0.26,0.00
9.25,0.03,0.42,0.94,0.79,0.17,0.24,0.37,-0.28,-0.26,0.00
9.285,0.03,0.42,0.94,0.56,-0.21,0.49,0.37,-0.28,-0.26,0.00
9.325,0.03,0.42,0.94,0.56,-0.21,0.49,0.00,0.05,-0.32,0.00
9.326,-0.02,0.31,1.15,0.56,-0.21,0.49,0.00,0.05,-0.32,0.00
9.326,-0.02,0.31,1.15,0.05,-0.92,3.12,0.00,0.05,-0.32,0.00
9.364,0.07,0.32,0.86,0.05,-0.92,3.12,0.00,0.05,-0.32,0.00
9.365,0.07,0.32,0.86,0.59,-1.62,-0.09,0.00,0.05,-0.32,0.00
9.404,0.07,0.32,0.86,0.59,-1.62,-0.09,0.23,-0.46,-0.51,0.00
9.405,0.07,0.32,0.86,1.03,-1.04,-0.42,0.23,-0.46,-0.51,0.00
9.444,0.07,0.32,0.86,1.03,-1.04,-0.42,0.09,-0.03,-0.55,0.00
9.444,0.07,0.32,0.86,1.18,-0.71,-0.16,0.09,-0.03,-0.55,0.00
9.445,0.03,0.33,0.88,1.18,-0.71,-0.16,0.09,-0.03,-0.55,0.00
9.483,0.03,0.33,0.88,0.46,-1.07,-0.15,0.09,-0.03,-0.55,0.00
9.522,0.03,0.33,0.88,0.46,-1.07,-0.15,-0.07,-0.19,-0.48,0.00
9.523,0.03,0.33,0.88,0.56,-1.34,0.08,-0.07,-0.19,-0.48,0.00
9.523,0.03,0.29,0.89,0.56,-1.34,0.08,-0.07,-0.19,-0.48,0.00
9.562,0.03,0.37,0.77,0.56,-1.34,0.08,-0.07,-0.19,-0.48,0.00
9.562,0.03,0.37,0.77,1.14,-1.09,-0.65,-0.07,-0.19,-0.48,0.00
9.602,0.03,0.37,0.77,1.14,-1.09,-0.65,0.04,-0.29,-0.66,0.00
9.602,0.03,0.37,0.77,0.65,-0.42,-1.29,0.04,-0.29,-0.66,0.00
9.641,0.03,0.37,0.77,0.65,-0.42,-1.29,-0.02,-0.17,-0.61,0.00
9.642,0.03,0.37,0.77,0.38,0.22,-0.82,-0.02,-0.17,-0.61,0.00
9.642,0.00,0.45,0.86,0.38,0.22,-0.82,-0.02,-0.17,-0.61,0.00
9.682,0.00,0.45,0.86,0.54,0.44,-0.19,-0.02,-0.17,-0.61,0.00
9.721,0.00,0.45,0.86,0.54,0.44,-0.19,-0.01,-0.01,-0.39,0.00
9.721,-0.03,0.44,0.91,0.54,0.44,-0.19,-0.01,-0.01,-0.39,0.00
9.722,-0.03,0.44,0.91,0.54,0.32,-0.22,-0.01,-0.01,-0.39,0.00
9.76,-0.03,0.44,0.91,-0.40,0.24,0.69,-0.01,-0.01,-0.39,0.00
9.8,-0.03,0.44,0.91,-0.40,0.24,0.69,-0.07,-0.09,-0.21,0.00
9.801,-0.03,0.44,0.91,0.22,-0.03,0.51,-0.07,-0.09,-0.21,0.00
9.801,-0.03,0.41,0.95,0.22,-0.03,0.51,-0.07,-0.09,-0.21,0.00
9.839,-0.03,0.41,0.95,0.22,-0.03,0.51,0.11,-0.11,-0.25,0.00
9.84,-0.01,0.41,0.95,0.22,-0.03,0.51,0.11,-0.11,-0.25,0.00
9.84,-0.01,0.41,0.95,0.31,-0.08,-0.08,0.11,-0.11,-0.25,0.00
9.878,-0.01,0.41,0.95,0.50,-0.06,0.80,0.11,-0.11,-0.25,0.00
9.918,-0.02,0.43,1.03,0.50,-0.06,0.80,0.11,-0.11,-0.25,0.00
9.919,-0.02,0.43,1.03,0.38,0.02,1.31,0.11,-0.11,-0.25,0.00
9.919,-0.02,0.43,1.03,0.38,0.02,1.31,0.23,0.03,-0.32,0.00
9.957,-0.02,0.43,1.03,0.44,-0.06,1.35,0.23,0.03,-0.32,0.00
9.997,-0.08,0.37,0.87,0.44,-0.06,1.35,0.23,0.03,-0.32,0.00
9.998,-0.08,0.37,0.87,0.44,-0.06,1.35,0.27,-0.05,-0.32,0.00
9.999,-0.08,0.37,0.87,-0.07,-0.75,-0.21,0.27,-0.05,-0.32,0.00
10.037,-0.02,0.33,0.93,-0.07,-0.75,-0.21,0.27,-0.05,-0.32,0.00
10.037,-0.02,0.33,0.93,-0.21,-0.94,0.60,0.27,-0.05,-0.32,0.00
10.076,-0.02,0.33,0.93,-0.21,-0.94,0.60,-0.01,-0.34,-0.35,0.00
10.077,-0.02,0.33,0.93,0.47,-1.15,0.38,-0.01,-0.34,-0.35,0.00
10.117,-0.02,0.33,0.93,0.47,-1.15,0.38,0.26,-0.42,-0.59,0.00
10.118,-0.01,0.40,0.79,0.47,-1.15,0.38,0.26,-0.42,-0.59,0.00
10.118,-0.01,0.40,0.79,0.77,-0.64,-0.95,0.26,-0.42,-0.59,0.00
10.155,-0.01,0.40,0.79,0.00,-0.30,-0.86,0.26,-0.42,-0.59,0.00
10.196,-0.01,0.40,0.79,0.00,-0.30,-0.86,-0.06,-0.29,-0.64,0.00
10.197,-0.02,0.40,0.89,0.00,-0.30,-0.86,-0.06,-0.29,-0.64,0.00
10.198,-0.02,0.40,0.89,0.27,-0.36,-0.08,-0.06,-0.29,-0.64,0.00
10.235,0.04,0.36,0.99,0.27,-0.36,-0.08,-0.06,-0.29,-0.64,0.00
10.236,0.04,0.36,0.99,0.35,-0.53,0.55,-0.06,-0.29,-0.64,0.00
10.274,0.04,0.36,0.99,0.35,-0.53,0.55,-0.17,-0.26,-0.68,0.00
10.275,0.04,0.36,0.99,1.03,-0.71,1.01,-0.17,-0.26,-0.68,0.00
10.314,0.00,0.37,0.87,1.03,-0.71,1.01,-0.17,-0.26,-0.68,0.00
10.315,0.00,0.37,0.87,1.03,-0.71,1.01,0.04,-0.60,-1.07,0.00
10.316,0.00,0.37,0.87,0.81,-0.63,0.17,0.04,-0.60,-1.07,0.00
10.353,0.00,0.37,0.87,0.17,-0.50,-0.69,0.04,-0.60,-1.07,0.00
10.393,-0.04,0.39,0.87,0.17,-0.50,-0.69,0.04,-0.60,-1.07,0.00
10.393,-0.04,0.39,0.87,0.17,-0.50,-0.69,0.07,-0.57,-1.26,0.00
10.394,-0.04,0.39,0.87,-0.03,-0.27,-0.39,0.07,-0.57,-1.26,0.00
10.432,-0.04,0.39,0.87,0.49,-0.49,0.24,0.07,-0.57,-1.26,0.00
10.433,-0.03,0.37,0.95,0.49,-0.49,0.24,0.07,-0.57,-1.26,0.00
10.471,-0.03,0.37,0.95,0.49,-0.49,0.24,0.00,-0.63,-1.35,0.00
10.472,-0.03,0.37,0.95,0.20,-0.52,0.51,0.00,-0.63,-1.35,0.00
10.511,-0.03,0.37,0.95,0.20,-0.52,0.51,0.03,-0.68,-1.52,0.00
10.512,-0.03,0.35,0.99,0.20,-0.52,0.51,0.03,-0.68,-1.52,0.00
10.513,-0.03,0.35,0.99,0.22,-0.66,1.17,0.03,-0.68,-1.52,0.00
10.553,-0.03,0.35,0.99,0.14,-0.63,0.62,0.03,-0.68,-1.52,0.00
10.59,0.00,0.34,0.91,0.14,-0.63,0.62,0.03,-0.68,-1.52,0.00
10.591,0.00,0.34,0.91,0.14,-0.63,0.62,0.04,-0.83,-1.61,0.00
10.592,0.00,0.34,0.91,0.41,-0.64,0.02,0.04,-0.83,-1.61,0.00
10.629,0.03,0.27,0.87,0.41,-0.64,0.02,0.04,-0.83,-1.61,0.00
10.63,0.03,0.27,0.87,0.49,-0.92,0.18,0.04,-0.83,-1.61,0.00
10.669,0.03,0.27,0.87,0.49,-0.92,0.18,-0.09,-0.74,-1.61,0.00
10.67,0.03,0.27,0.87,0.61,-1.28,-0.38,-0.09,-0.74,-1.61,0.00
10.71,0.03,0.27,0.87,0.61,-1.28,-0.38,-0.28,-0.83,-1.55,0.00
10.711,0.03,0.22,0.99,0.61,-1.28,-0.38,-0.28,-0.83,-1.55,0.00
10.711,0.03,0.22,0.99,0.27,-2.05,-1.09,-0.28,-0.83,-1.55,0.00
10.749,0.03,0.22,0.99,0.87,-1.11,1.72,-0.28,-0.83,-1.55,0.00
10.788,0.03,0.22,0.99,0.87,-1.11,1.72,-0.13,-0.46,-1.37,0.00
10.789,0.10,0.22,1.00,0.87,-1.11,1.72,-0.13,-0.46,-1.37,0.00
10.789,0.10,0.22,1.00,1.21,-1.31,0.70,-0.13,-0.46,-1.37,0.00
10.827,0.10,0.22,1.00,1.30,-1.43,0.81,-0.13,-0.46,-1.37,0.00
10.866,0.10,0.22,1.00,1.30,-1.43,0.81,-0.25,-0.77,-1.46,0.00
10.867,0.10,0.17,1.16,1.30,-1.43,0.81,-0.25,-0.77,-1.46,0.00
10.867,0.10,0.17,1.16,1.16,-1.63,2.21,-0.25,-0.77,-1.46,0.00
10.907,0.04,0.24,0.93,1.16,-1.63,2.21,-0.25,-0.77,-1.46,0.00
10.908,0.04,0.24,0.93,1.16,-1.63,2.21,0.13,-0.75,-1.70,0.00
10.908,0.04,0.24,0.93,0.76,-1.38,0.63,0.13,-0.75,-1.70,0.00
10.946,0.04,0.24,0.93,0.38,-0.81,-0.29,0.13,-0.75,-1.70,0.00
10.985,0.04,0.24,0.93,0.52,-0.60,0.20,0.13,-0.75,-1.70,0.00
10.986,0.03,0.27,0.97,0.52,-0.60,0.20,0.13,-0.75,-1.70,0.00
10.986,0.03,0.27,0.97,0.52,-0.60,0.20,-0.15,-0.63,-1.68,0.00
11.025,0.03,0.27,0.97,0.19,-0.46,0.42,-0.15,-0.63,-1.68,0.00
11.065,0.03,0.27,0.97,0.19,-0.46,0.42,-0.13,-0.43,-1.62,0.00
11.065,0.04,0.29,0.97,0.19,-0.46,0.42,-0.13,-0.43,-1.62,0.00
11.065,0.04,0.29,0.97,0.49,-0.30,0.25,-0.13,-0.43,-1.62,0.00
11.104,0.04,0.29,0.97,0.54,-0.23,0.31,-0.13,-0.43,-1.62,0.00
11.105,0.03,0.30,0.97,0.54,-0.23,0.31,-0.13,-0.43,-1.62,0.00
11.144,0.03,0.30,0.97,0.54,-0.23,0.31,-0.04,-0.45,-1.55,0.00
11.145,0.03,0.30,0.97,0.39,-0.02,0.30,-0.04,-0.45,-1.55,0.00
11.183,0.03,0.30,0.97,0.39,-0.02,0.30,0.03,-0.44,-1.40,0.00
11.183,0.06,0.29,1.00,0.39,-0.02,0.30,0.03,-0.44,-1.40,0.00
11.184,0.06,0.29,1.00,0.90,-0.16,0.50,0.03,-0.44,-1.40,0.00
11.222,0.06,0.29,1.00,0.41,-0.23,0.47,0.03,-0.44,-1.40,0.00
11.262,0.06,0.29,1.00,0.41,-0.23,0.47,0.09,-0.40,-1.31,0.00
11.263,-0.00,0.29,1.02,0.41,-0.23,0.47,0.09,-0.40,-1.31,0.00
11.263,-0.00,0.29,1.02,0.05,-0.19,0.72,0.09,-0.40,-1.31,0.00
11.301,-0.02,0.29,0.91,0.05,-0.19,0.72,0.09,-0.40,-1.31,0.00
11.302,-0.02,0.29,0.91,0.30,-0.28,-0.14,0.09,-0.40,-1.31,0.00
11.341,-0.02,0.29,0.91,0.30,-0.28,-0.14,0.14,-0.49,-1.23,0.00
11.342,-0.02,0.29,0.91,-0.22,-0.24,-0.51,0.14,-0.49,-1.23,0.00
11.382,-0.02,0.29,0.91,-0.22,-0.24,-0.51,0.04,-0.40,-1.17,0.00
11.383,-0.03,0.29,0.99,-0.22,-0.24,-0.51,0.04,-0.40,-1.17,0.00
11.383,-0.03,0.29,0.99,-0.25,-0.28,0.29,0.04,-0.40,-1.17,0.00
11.42,-0.03,0.29,0.99,-0.26,-0.30,0.40,0.04,-0.40,-1.17,0.00
11.46,-0.03,0.29,0.99,-0.26,-0.30,0.40,0.19,-0.31,-1.13,0.00
11.46,-0.03,0.29,0.99,-1.07,-0.18,-0.55,0.19,-0.31,-1.13,0.00
11.46,-0.12,0.31,0.90,-1.07,-0.18,-0.55,0.19,-0.31,-1.13,0.00
11.499,-0.09,0.27,0.96,-1.07,-0.18,-0.55,0.19,-0.31,-1.13,0.00
11.5,-0.09,0.27,0.96,-1.00,-0.41,0.02,0.19,-0.31,-1.13,0.00
11.539,-0.09,0.27,0.96,-1.00,-0.41,0.02,-0.05,-0.41,-0.97,0.00
11.539,-0.09,0.27,0.96,-0.74,-0.54,0.15,-0.05,-0.41,-0.97,0.00
11.578,-0.09,0.27,0.96,-0.74,-0.54,0.15,0.04,-0.50,-1.02,0.00
11.579,-0.09,0.29,0.93,-0.74,-0.54,0.15,0.04,-0.50,-1.02,0.00
11.579,-0.09,0.29,0.93,-0.92,-0.48,0.08,0.04,-0.50,-1.02,0.00
11.619,-0.09,0.29,0.93,-0.81,-0.24,-0.35,0.04,-0.50,-1.02,0.00
11.661,-0.09,0.29,0.93,-0.81,-0.24,-0.35,0.07,-0.35,-1.01,0.00
11.661,-0.12,0.29,0.89,-0.81,-0.24,-0.35,0.07,-0.35,-1.01,0.00
11.662,-0.12,0.29,0.89,-1.14,-0.35,-0.70,0.07,-0.35,-1.01,0.00
11.696,-0.12,0.32,0.87,-1.14,-0.35,-0.70,0.07,-0.35,-1.01,0.00
11.697,-0.12,0.32,0.87,-1.12,-0.44,-0.03,0.07,-0.35,-1.01,0.00
11.737,-0.12,0.32,0.87,-1.12,-0.44,-0.03,0.04,-0.22,-1.00,0.00
11.738,-0.12,0.32,0.87,-0.86,-0.10,-0.68,0.04,-0.22,-1.00,0.00
11.777,-0.12,0.32,0.87,-0.86,-0.10,-0.68,-0.09,-0.25,-0.96,0.00
11.777,-0.12,0.32,0.87,-0.86,0.22,-0.38,-0.09,-0.25,-0.96,0.00
11.777,-0.11,0.36,0.92,-0.86,0.22,-0.38,-0.09,-0.25,-0.96,0.00
11.816,-0.11,0.36,0.92,-0.69,0.41,0.01,-0.09,-0.25,-0.96,0.00
11.856,-0.11,0.36,0.92,-0.69,0.41,0.01,-0.04,-0.29,-0.90,0.00
11.856,-0.10,0.37,0.88,-0.69,0.41,0.01,-0.04,-0.29,-0.90,0.00
11.857,-0.10,0.37,0.88,-0.49,0.41,-0.54,-0.04,-0.29,-0.90,0.00
11.894,-0.10,0.37,0.88,-1.00,0.85,-0.73,-0.04,-0.29,-0.90,0.00
11.895,-0.07,0.41,0.95,-1.00,0.85,-0.73,-0.04,-0.29,-0.90,0.00
11.934,-0.07,0.41,0.95,-1.00,0.85,-0.73,-0.05,-0.32,-0.79,0.00
11.934,-0.07,0.41,0.95,-0.38,0.89,0.14,-0.05,-0.32,-0.79,0.00
11.974,-0.08,0.42,0.94,-0.38,0.89,0.14,-0.05,-0.32,-0.79,0.00
11.975,-0.08,0.42,0.94,-0.38,0.89,0.14,0.15,-0.34,-0.72,0.00
11.976,-0.08,0.42,0.94,-0.28,0.87,0.07,0.15,-0.34,-0.72,0.00
12.013,-0.08,0.42,0.94,-0.59,0.92,0.06,0.15,-0.34,-0.72,0.00
12.053,-0.08,0.42,0.94,-0.74,0.44,1.74,0.15,-0.34,-0.72,0.00
12.053,-0.08,0.42,0.94,-0.74,0.44,1.74,0.13,-0.26,-0.62,0.00
12.053,-0.09,0.37,1.12,-0.74,0.44,1.74,0.13,-0.26,-0.62,0.00
12.093,-0.09,0.37,1.12,-0.45,-0.03,1.94,0.13,-0.26,-0.62,0.00
12.132,-0.09,0.37,1.12,-0.12,-0.15,-0.27,0.13,-0.26,-0.62,0.00
12.133,-0.02,0.35,0.89,-0.12,-0.15,-0.27,0.13,-0.26,-0.62,0.00
12.134,-0.02,0.35,0.89,-0.12,-0.15,-0.27,0.41,-0.49,-0.66,0.00
12.171,-0.02,0.35,0.89,-0.12,-0.15,-0.27,0.02,-0.28,-0.65,0.00
12.172,-0.02,0.32,0.95,-0.12,-0.15,-0.27,0.02,-0.28,-0.65,0.00
12.172,-0.02,0.32,0.95,0.42,0.08,-2.02,0.02,-0.28,-0.65,0.00
12.211,-0.02,0.32,0.95,-0.17,-0.44,0.97,0.02,-0.28,-0.65,0.00
12.25,-0.01,0.21,1.05,-0.17,-0.44,0.97,0.02,-0.28,-0.65,0.00
12.251,-0.01,0.21,1.05,-0.17,-0.44,0.97,-0.16,-0.19,-0.58,0.00
12.252,-0.01,0.21,1.05,0.19,-1.27,1.76,-0.16,-0.19,-0.58,0.00
12.29,-0.01,0.21,1.05,-0.10,-1.39,0.23,-0.16,-0.19,-0.58,0.00
12.329,-0.01,0.21,1.05,-0.10,-1.39,0.23,0.18,-0.44,-0.73,0.00
12.33,0.05,0.26,0.80,-0.10,-1.39,0.23,0.18,-0.44,-0.73,0.00
12.33,0.05,0.26,0.80,0.54,-0.99,-1.23,0.18,-0.44,-0.73,0.00
12.369,0.01,0.30,0.90,0.54,-0.99,-1.23,0.18,-0.44,-0.73,0.00
12.369,0.01,0.30,0.90,0.64,-0.62,-1.43,0.18,-0.44,-0.73,0.00
12.41,0.01,0.30,0.90,0.13,-0.43,0.01,0.18,-0.44,-0.73,0.00
12.41,0.01,0.30,0.90,0.13,-0.43,0.01,-0.04,-0.10,-0.68,0.00
12.448,0.01,0.30,0.90,0.13,-0.43,0.01,-0.17,-0.12,-0.46,0.00
12.449,0.01,0.30,0.90,0.43,-0.59,-0.08,-0.17,-0.12,-0.46,0.00
12.449,0.02,0.29,0.93,0.43,-0.59,-0.08,-0.17,-0.12,-0.46,0.00
12.488,0.02,0.29,0.93,0.18,-0.19,-0.06,-0.17,-0.12,-0.46,0.00
12.527,0.02,0.29,0.93,0.27,-0.11,-0.35,-0.17,-0.12,-0.46,0.00
12.528,0.01,0.31,0.91,0.27,-0.11,-0.35,-0.17,-0.12,-0.46,0.00
12.528,0.01,0.31,0.91,0.27,-0.11,-0.35,-0.19,-0.09,-0.32,0.00
12.567,0.01,0.31,0.91,0.23,0.03,0.18,-0.19,-0.09,-0.32,0.00
12.567,-0.00,0.33,0.90,0.23,0.03,0.18,-0.19,-0.09,-0.32,0.00
12.607,-0.00,0.33,0.90,0.23,0.03,0.18,-0.13,-0.02,-0.18,0.00
12.608,-0.00,0.33,0.90,0.12,0.19,-0.49,-0.13,-0.02,-0.18,0.00
12.646,-0.00,0.33,0.90,0.12,0.19,-0.49,-0.16,-0.00,-0.04,0.00
12.647,-0.02,0.38,0.95,0.12,0.19,-0.49,-0.16,-0.00,-0.04,0.00
12.647,-0.02,0.38,0.95,0.13,0.61,-0.36,-0.16,-0.00,-0.04,0.00
12.685,-0.02,0.38,0.95,-0.12,0.73,0.42,-0.16,-0.00,-0.04,0.00
12.725,-0.02,0.38,0.95,-0.12,0.73,0.42,-0.03,0.11,0.13,0.00
12.725,-0.02,0.39,0.96,-0.12,0.73,0.42,-0.03,0.11,0.13,0.00
12.725,-0.02,0.39,0.96,-0.11,0.80,0.19,-0.03,0.11,0.13,0.00
12.764,0.04,0.37,1.01,-0.11,0.80,0.19,-0.03,0.11,0.13,0.00
12.765,0.04,0.37,1.01,0.50,0.60,0.11,-0.03,0.11,0.13,0.00
12.804,0.04,0.37,1.01,0.50,0.60,0.11,0.09,0.09,0.27,0.00
12.804,0.04,0.37,1.01,0.57,0.44,0.77,0.09,0.09,0.27,0.00
12.844,0.04,0.37,1.01,0.57,0.44,0.77,0.22,0.16,0.19,0.00
12.844,-0.04,0.39,1.02,0.57,0.44,0.77,0.22,0.16,0.19,0.00
12.844,-0.04,0.39,1.02,0.22,0.74,0.79,0.22,0.16,0.19,0.00
12.883,-0.04,0.39,1.02,-0.45,0.32,0.80,0.22,0.16,0.19,0.00
12.923,-0.04,0.39,1.02,-0.45,0.32,0.80,0.17,0.05,0.25,0.00
12.924,-0.01,0.31,0.91,-0.45,0.32,0.80,0.17,0.05,0.25,0.00
12.924,-0.01,0.31,0.91,0.11,-0.23,-0.01,0.17,0.05,0.25,0.00
12.966,-0.08,0.27,1.03,0.11,-0.23,-0.01,0.17,0.05,0.25,0.00
12.966,-0.08,0.27,1.03,0.28,-0.53,-0.74,0.17,0.05,0.25,0.00
13.002,-0.08,0.27,1.03,0.28,-0.53,-0.74,0.01,0.25,0.14,0.00
13.003,-0.08,0.27,1.03,-0.45,-0.69,1.06,0.01,0.25,0.14,0.00
13.042,-0.09,0.31,0.83,-0.45,-0.69,1.06,0.01,0.25,0.14,0.00
13.042,-0.09,0.31,0.83,-0.45,-0.69,1.06,0.15,0.02,0.14,0.00
13.042,-0.09,0.31,0.83,-0.68,-0.64,-0.18,0.15,0.02,0.14,0.00
13.081,-0.09,0.31,0.83,-0.52,-0.18,-1.50,0.15,0.02,0.14,0.00
13.121,-0.09,0.31,0.83,-0.52,-0.18,-1.50,-0.12,0.02,0.22,0.00
13.121,-0.07,0.33,0.92,-0.52,-0.18,-1.50,-0.12,0.02,0.22,0.00
13.121,-0.07,0.33,0.92,-0.18,-0.03,-0.20,-0.12,0.02,0.22,0.00
13.16,-0.07,0.33,0.92,-0.47,-0.26,0.08,-0.12,0.02,0.22,0.00
13.2,-0.07,0.33,0.92,-0.47,-0.26,0.08,-0.05,0.18,0.21,0.00
13.2,-0.12,0.33,0.82,-0.47,-0.26,0.08,-0.05,0.18,0.21,0.00
13.2,-0.12,0.33,0.82,-0.76,-0.08,-1.13,-0.05,0.18,0.21,0.00
13.239,-0.07,0.38,0.94,-0.76,-0.08,-1.13,-0.05,0.18,0.21,0.00
13.24,-0.07,0.38,0.94,-0.76,-0.08,-1.13,-0.34,-0.09,0.19,0.00
13.24,-0.07,0.38,0.94,-0.60,0.22,-1.27,-0.34,-0.09,0.19,0.00
13.279,-0.07,0.38,0.94,-0.13,0.70,0.62,-0.34,-0.09,0.19,0.00
13.318,-0.07,0.38,0.94,-0.13,0.70,0.62,0.00,0.08,0.12,0.00
13.319,-0.07,0.42,0.86,-0.13,0.70,0.62,0.00,0.08,0.12,0.00
13.319,-0.07,0.42,0.86,-0.30,0.84,-0.66,0.00,0.08,0.12,0.00
13.357,-0.07,0.42,0.86,-0.25,1.15,-0.87,0.00,0.08,0.12,0.00
13.397,-0.07,0.42,0.86,-0.25,1.15,-0.87,-0.03,-0.17,0.03,0.00
13.398,-0.04,0.46,0.96,-0.25,1.15,-0.87,-0.03,-0.17,0.03,0.00
13.398,-0.04,0.46,0.96,-0.11,1.31,0.25,-0.03,-0.17,0.03,0.00
13.437,-0.07,0.47,1.00,-0.11,1.31,0.25,-0.03,-0.17,0.03,0.00
13.437,-0.07,0.47,1.00,-0.02,1.28,0.30,-0.03,-0.17,0.03,0.00
13.476,-0.07,0.47,1.00,-0.02,1.28,0.30,0.28,0.02,-0.02,0.00
13.476,-0.07,0.47,1.00,-0.46,1.12,0.81,0.28,0.02,-0.02,0.00
13.516,-0.07,0.47,1.00,-0.46,1.12,0.81,0.34,-0.11,-0.02,0.00
13.517,-0.08,0.46,1.03,-0.46,1.12,0.81,0.34,-0.11,-0.02,0.00
13.517,-0.08,0.46,1.03,-0.49,0.74,1.23,0.34,-0.11,-0.02,0.00
13.555,-0.08,0.46,1.03,-0.54,0.94,0.73,0.34,-0.11,-0.02,0.00
13.595,-0.03,0.42,1.00,-0.54,0.94,0.73,0.34,-0.11,-0.02,0.00
13.595,-0.03,0.42,1.00,-0.54,0.94,0.73,0.19,-0.12,-0.02,0.00
13.595,-0.03,0.42,1.00,-0.13,0.47,0.62,0.19,-0.12,-0.02,0.00
13.634,-0.01,0.27,1.01,-0.13,0.47,0.62,0.19,-0.12,-0.02,0.00
13.635,-0.01,0.27,1.01,-0.24,-0.22,1.32,0.19,-0.12,-0.02,0.00
13.674,-0.01,0.27,1.01,-0.24,-0.22,1.32,0.02,-0.06,-0.05,0.00
13.674,-0.01,0.27,1.01,0.15,-1.31,0.69,0.02,-0.06,-0.05,0.00
13.715,-0.01,0.27,1.01,0.15,-1.31,0.69,0.31,-0.16,-0.31,0.00
13.716,0.04,0.27,0.81,0.15,-1.31,0.69,0.31,-0.16,-0.31,0.00
13.716,0.04,0.27,0.81,0.42,-1.44,-0.34,0.31,-0.16,-0.31,0.00
13.754,0.04,0.27,0.81,0.73,-1.16,-1.68,0.31,-0.16,-0.31,0.00
13.794,0.02,0.32,0.92,0.73,-1.16,-1.68,0.31,-0.16,-0.31,0.00
13.794,0.02,0.32,0.92,0.73,-1.16,-1.68,0.09,0.04,-0.44,0.00
13.795,0.02,0.32,0.92,0.67,-0.77,0.07,0.09,0.04,-0.44,0.00
13.833,-0.04,0.31,0.91,0.67,-0.77,0.07,0.09,0.04,-0.44,0.00
13.834,-0.04,0.31,0.91,-0.12,-0.93,0.08,0.09,0.04,-0.44,0.00
13.872,-0.04,0.31,0.91,-0.12,-0.93,0.08,-0.01,0.19,-0.33,0.00
13.873,-0.04,0.31,0.91,0.10,-0.83,-0.07,-0.01,0.19,-0.33,0.00
13.912,-0.04,0.31,0.91,0.41,-0.64,-1.37,-0.01,0.19,-0.33,0.00
13.913,-0.02,0.35,0.77,0.41,-0.64,-1.37,-0.01,0.19,-0.33,0.00
13.913,-0.02,0.35,0.77,0.41,-0.64,-1.37,-0.13,-0.27,-0.28,0.00
13.951,-0.02,0.35,0.77,-0.12,0.05,-1.40,-0.13,-0.27,-0.28,0.00
13.991,-0.02,0.35,0.77,-0.12,0.05,-1.40,-0.18,-0.01,-0.15,0.00
13.991,-0.02,0.38,0.91,-0.12,0.05,-1.40,-0.18,-0.01,-0.15,0.00
13.992,-0.02,0.38,0.91,0.23,-0.02,-0.03,-0.18,-0.01,-0.15,0.00
14.03,-0.09,0.45,0.84,0.23,-0.02,-0.03,-0.18,-0.01,-0.15,0.00
14.031,-0.09,0.45,0.84,0.26,0.24,-0.03,-0.18,-0.01,-0.15,0.00
14.07,-0.09,0.45,0.84,-0.51,0.73,-0.78,-0.18,-0.01,-0.15,0.00
14.07,-0.09,0.45,0.84,-0.51,0.73,-0.78,0.06,-0.05,-0.15,0.00
14.11,-0.11,0.44,0.98,-0.51,0.73,-0.78,0.06,-0.05,-0.15,0.00
14.111,-0.11,0.44,0.98,-0.69,0.76,0.54,0.06,-0.05,-0.15,0.00
14.111,-0.11,0.44,0.98,-0.69,0.76,0.54,-0.00,0.12,0.10,0.00
14.149,-0.11,0.44,0.98,-0.59,0.44,0.67,-0.00,0.12,0.10,0.00
14.189,-0.05,0.39,1.00,-0.59,0.44,0.67,-0.00,0.12,0.10,0.00
14.19,-0.05,0.39,1.00,-0.17,0.15,0.46,-0.00,0.12,0.10,0.00
14.19,-0.05,0.39,1.00,-0.17,0.15,0.46,-0.04,0.05,0.29,0.00
14.229,-0.05,0.39,1.00,0.09,0.00,1.53,-0.04,0.05,0.29,0.00
14.229,-0.05,0.38,0.94,0.09,0.00,1.53,-0.04,0.05,0.29,0.00
14.269,-0.05,0.38,0.94,0.09,0.00,1.53,-0.01,0.24,0.26,0.00
14.27,-0.05,0.38,0.94,0.04,0.03,0.19,-0.01,0.24,0.26,0.00
14.307,-0.14,0.33,1.02,0.04,0.03,0.19,-0.01,0.24,0.26,0.00
14.307,-0.14,0.33,1.02,-0.53,0.12,0.74,-0.01,0.24,0.26,0.00
14.308,-0.14,0.33,1.02,-0.53,0.12,0.74,-0.27,0.35,0.27,0.00
14.347,-0.14,0.33,1.02,-0.90,-0.58,0.98,-0.27,0.35,0.27,0.00
14.386,-0.04,0.31,0.84,-0.90,-0.58,0.98,-0.27,0.35,0.27,0.00
14.387,-0.04,0.31,0.84,0.07,-0.54,-0.74,-0.27,0.35,0.27,0.00
14.387,-0.04,0.31,0.84,0.07,-0.54,-0.74,-0.03,-0.02,0.31,0.00
14.425,-0.04,0.31,0.84,0.35,-0.39,-0.99,-0.03,-0.02,0.31,0.00
14.465,-0.04,0.31,0.84,0.35,-0.39,-0.99,-0.04,0.35,0.29,0.00
14.465,-0.04,0.31,0.84,-0.84,-0.58,-0.13,-0.04,0.35,0.29,0.00
14.466,-0.16,0.30,0.92,-0.84,-0.58,-0.13,-0.04,0.35,0.29,0.00
14.505,-0.16,0.30,0.92,-0.84,-0.58,-0.13,-0.16,0.01,0.36,0.00
14.505,-0.08,0.33,0.85,-0.84,-0.58,-0.13,-0.16,0.01,0.36,0.00
14.506,-0.08,0.33,0.85,-0.60,-0.34,0.60,-0.16,0.01,0.36,0.00
14.544,-0.08,0.33,0.85,-0.03,-0.14,-1.33,-0.16,0.01,0.36,0.00
14.584,-0.08,0.38,0.84,-0.03,-0.14,-1.33,-0.16,0.01,0.36,0.00
14.584,-0.08,0.38,0.84,-0.03,-0.14,-1.33,-0.08,0.03,0.34,0.00
14.584,-0.08,0.38,0.84,-0.48,0.40,-0.62,-0.08,0.03,0.34,0.00
14.623,-0.08,0.38,0.84,0.21,0.31,-1.08,-0.08,0.03,0.34,0.00
14.663,-0.06,0.43,0.88,0.21,0.31,-1.08,-0.08,0.03,0.34,0.00
14.663,-0.06,0.43,0.88,0.21,0.31,-1.08,-0.05,-0.11,0.30,0.00
14.664,-0.06,0.43,0.88,-0.14,0.78,-0.54,-0.05,-0.11,0.30,0.00
14.703,-0.05,0.44,0.98,-0.14,0.78,-0.54,-0.05,-0.11,0.30,0.00
14.703,-0.05,0.44,0.98,-0.49,0.92,0.29,-0.05,-0.11,0.30,0.00
14.742,-0.05,0.44,0.98,-0.49,0.92,0.29,0.06,0.03,0.26,0.00
14.743,-0.05,0.44,0.98,0.04,0.77,0.64,0.06,0.03,0.26,0.00
14.782,-0.05,0.44,0.98,-0.72,0.90,1.32,0.06,0.03,0.26,0.00
14.783,-0.08,0.46,1.05,-0.72,0.90,1.32,0.06,0.03,0.26,0.00
14.783,-0.08,0.46,1.05,-0.72,0.90,1.32,0.26,-0.17,0.02,0.00
14.822,-0.08,0.46,1.05,-0.16,0.62,1.25,0.26,-0.17,0.02,0.00
14.86,-0.08,0.46,1.05,-0.16,0.62,1.25,0.42,-0.10,-0.07,0.00
14.861,-0.04,0.42,1.00,-0.16,0.62,1.25,0.42,-0.10,-0.07,0.00
14.861,-0.04,0.42,1.00,-0.30,0.33,1.01,0.42,-0.10,-0.07,0.00
14.901,0.09,0.29,1.06,-0.30,0.33,1.01,0.42,-0.10,-0.07,0.00
14.901,0.09,0.29,1.06,0.58,-0.79,-0.00,0.42,-0.10,-0.07,0.00
14.941,0.09,0.29,1.06,1.34,-1.08,1.58,0.42,-0.10,-0.07,0.00
14.941,0.09,0.29,1.06,1.34,-1.08,1.58,0.03,-0.05,-0.12,0.00
14.979,0.09,0.29,1.06,-0.27,-0.98,2.06,0.03,-0.05,-0.12,0.00
14.98,-0.00,0.30,0.94,-0.27,-0.98,2.06,0.03,-0.05,-0.12,0.00
14.981,-0.00,0.30,0.94,-0.27,-0.98,2.06,0.09,-0.01,-0.42,0.00
15.02,-0.00,0.30,0.94,0.88,-0.99,-1.34,0.09,-0.01,-0.42,0.00
15.058,-0.00,0.30,0.94,0.88,-0.99,-1.34,0.05,-0.18,-0.47,0.00
15.059,0.05,0.33,0.82,0.88,-0.99,-1.34,0.05,-0.18,-0.47,0.00
15.059,0.05,0.33,0.82,0.94,-0.61,-1.11,0.05,-0.18,-0.47,0.00
15.099,0.05,0.33,0.82,0.53,-0.83,-0.15,0.05,-0.18,-0.47,0.00
15.099,0.03,0.27,0.82,0.53,-0.83,-0.15,0.05,-0.18,-0.47,0.00
15.138,0.03,0.27,0.82,0.53,-0.83,-0.15,-0.07,-0.06,-0.37,0.00
15.139,0.03,0.27,0.82,0.69,-1.18,-1.07,-0.07,-0.06,-0.37,0.00
15.178,0.02,0.33,0.76,0.69,-1.18,-1.07,-0.07,-0.06,-0.37,0.00
15.178,0.02,0.33,0.76,0.69,-1.18,-1.07,-0.14,-0.21,-0.44,0.00
15.178,0.02,0.33,0.76,0.80,-0.83,-1.63,-0.14,-0.21,-0.44,0.00
15.217,0.02,0.33,0.76,0.49,-0.13,-1.49,-0.14,-0.21,-0.44,0.00
15.256,0.02,0.33,0.76,0.49,-0.13,-1.49,-0.16,-0.02,-0.37,0.00
15.257,0.02,0.33,0.76,0.07,0.17,-1.11,-0.16,-0.02,-0.37,0.00
15.258,-0.04,0.39,0.82,0.07,0.17,-1.11,-0.16,-0.02,-0.37,0.00
15.296,0.02,0.41,0.88,0.07,0.17,-1.11,-0.16,-0.02,-0.37,0.00
15.296,0.02,0.41,0.88,0.07,0.25,-0.53,-0.16,-0.02,-0.37,0.00
15.335,0.02,0.41,0.88,0.07,0.25,-0.53,-0.10,-0.07,-0.20,0.00
15.336,0.02,0.41,0.88,0.72,0.46,-0.35,-0.10,-0.07,-0.20,0.00
15.375,0.02,0.41,0.88,0.72,0.46,-0.35,0.09,0.15,-0.17,0.00
15.375,-0.12,0.48,0.94,0.72,0.46,-0.35,0.09,0.15,-0.17,0.00
15.376,-0.12,0.48,0.94,-0.07,0.99,0.37,0.09,0.15,-0.17,0.00
15.415,-0.12,0.48,0.94,-0.86,1.10,0.22,0.09,0.15,-0.17,0.00
15.454,-0.12,0.48,0.94,-0.86,1.10,0.22,-0.06,0.01,0.08,0.00
15.455,-0.04,0.43,1.04,-0.86,1.10,0.22,-0.06,0.01,0.08,0.00
15.455,-0.04,0.43,1.04,0.02,0.79,0.97,-0.06,0.01,0.08,0.00
15.493,-0.04,0.43,1.04,0.61,0.28,1.59,-0.06,0.01,0.08,0.00
15.533,-0.04,0.43,1.04,0.61,0.28,1.59,0.13,0.26,0.01,0.00
15.534,-0.00,0.43,1.05,0.61,0.28,1.59,0.13,0.26,0.01,0.00
15.534,-0.00,0.43,1.05,0.70,0.53,1.34,0.13,0.26,0.01,0.00
15.573,-0.00,0.43,1.05,-0.61,-0.16,0.55,0.13,0.26,0.01,0.00
15.573,-0.13,0.32,1.11,-0.61,-0.16,0.55,0.13,0.26,0.01,0.00
15.573,-0.13,0.32,1.11,-0.61,-0.16,0.55,0.00,0.22,-0.09,0.00
15.612,-0.13,0.32,1.11,-0.38,-0.83,2.39,0.00,0.22,-0.09,0.00
15.652,-0.08,0.31,0.88,-0.38,-0.83,2.39,0.00,0.22,-0.09,0.00
15.652,-0.08,0.31,0.88,-0.38,-0.83,2.39,0.27,-0.02,-0.02,0.00
15.653,-0.08,0.31,0.88,0.05,-0.86,0.13,0.27,-0.02,-0.02,0.00
15.691,-0.08,0.31,0.88,0.12,-0.82,-0.97,0.27,-0.02,-0.02,0.00
15.731,-0.08,0.31,0.88,0.12,-0.82,-0.97,-0.06,-0.01,0.16,0.00
15.732,-0.09,0.27,0.97,0.12,-0.82,-0.97,-0.06,-0.01,0.16,0.00
15.732,-0.09,0.27,0.97,-0.11,-1.12,0.51,-0.06,-0.01,0.16,0.00
15.77,-0.09,0.27,0.97,0.07,-1.20,0.91,-0.06,-0.01,0.16,0.00
15.771,-0.03,0.27,0.87,0.07,-1.20,0.91,-0.06,-0.01,0.16,0.00
15.81,-0.03,0.27,0.87,0.07,-1.20,0.91,-0.08,-0.17,0.18,0.00
15.811,-0.03,0.27,0.87,0.38,-0.98,-0.96,-0.08,-0.17,0.18,0.00
15.849,-0.03,0.27,0.87,0.38,-0.98,-0.96,-0.07,-0.22,-0.00,0.00
15.85,0.01,0.31,0.82,0.38,-0.98,-0.96,-0.07,-0.22,-0.00,0.00
15.85,0.01,0.31,0.82,0.45,-0.66,-1.22,-0.07,-0.22,-0.00,0.00
15.889,0.01,0.31,0.82,0.75,-0.52,-0.61,-0.07,-0.22,-0.00,0.00
15.928,0.01,0.31,0.82,0.75,-0.52,-0.61,-0.11,-0.24,-0.27,0.00
15.929,0.02,0.35,0.86,0.75,-0.52,-0.61,-0.11,-0.24,-0.27,0.00
15.929,0.02,0.35,0.86,0.55,-0.14,-0.67,-0.11,-0.24,-0.27,0.00
15.97,0.06,0.35,0.91,0.55,-0.14,-0.67,-0.11,-0.24,-0.27,0.00
15.97,0.06,0.35,0.91,1.06,-0.19,0.05,-0.11,-0.24,-0.27,0.00
16.007,0.06,0.35,0.91,1.06,-0.19,0.05,-0.02,-0.17,-0.58,0.00
16.008,0.06,0.35,0.91,1.02,-0.11,-0.16,-0.02,-0.17,-0.58,0.00
16.047,0.06,0.35,0.91,1.02,-0.11,-0.16,0.01,-0.16,-0.88,0.00
16.048,0.01,0.31,1.05,1.02,-0.11,-0.16,0.01,-0.16,-0.88,0.00
16.048,0.01,0.31,1.05,0.25,-0.28,-0.45,0.01,-0.16,-0.88,0.00
16.086,0.01,0.31,1.05,0.84,-0.66,2.96,0.01,-0.16,-0.88,0.00
16.126,0.01,0.31,1.05,0.84,-0.66,2.96,0.33,-0.41,-1.19,0.00
16.127,0.02,0.31,0.96,0.84,-0.66,2.96,0.33,-0.41,-1.19,0.00
16.127,0.02,0.31,0.96,0.77,-0.79,0.60,0.33,-0.41,-1.19,0.00
16.165,-0.00,0.30,0.99,0.77,-0.79,0.60,0.33,-0.41,-1.19,0.00
16.166,-0.00,0.30,0.99,0.43,-0.33,-0.47,0.33,-0.41,-1.19,0.00
16.205,-0.00,0.30,0.99,0.43,-0.33,-0.47,0.14,-0.50,-1.37,0.00
16.206,-0.00,0.30,0.99,0.56,-0.82,0.83,0.14,-0.50,-1.37,0.00
16.244,-0.00,0.30,0.99,0.56,-0.82,0.83,-0.03,-0.24,-1.49,0.00
16.245,-0.02,0.20,1.08,0.56,-0.82,0.83,-0.03,-0.24,-1.49,0.00
16.245,-0.02,0.20,1.08,0.64,-1.53,2.42,-0.03,-0.24,-1.49,0.00
16.284,-0.02,0.20,1.08,0.44,-1.64,0.76,-0.03,-0.24,-1.49,0.00
16.324,-0.02,0.20,1.08,0.44,-1.64,0.76,0.19,-0.60,-1.69,0.00
16.325,0.01,0.23,0.81,0.44,-1.64,0.76,0.19,-0.60,-1.69,0.00
16.325,0.01,0.23,0.81,0.81,-1.28,-1.57,0.19,-0.60,-1.69,0.00
16.364,0.02,0.21,1.00,0.81,-1.28,-1.57,0.19,-0.60,-1.69,0.00
16.364,0.02,0.21,1.00,1.12,-1.13,0.48,0.19,-0.60,-1.69,0.00
16.403,0.02,0.21,1.00,1.02,-1.42,0.72,0.19,-0.60,-1.69,0.00
16.404,0.02,0.21,1.00,1.02,-1.42,0.72,-0.07,-0.34,-1.62,0.00
16.443,0.02,0.21,1.00,1.02,-1.42,0.72,-0.01,-0.48,-1.60,0.00
16.444,0.02,0.21,1.00,0.80,-1.37,-0.27,-0.01,-0.48,-1.60,0.00
16.444,0.01,0.17,1.00,0.80,-1.37,-0.27,-0.01,-0.48,-1.60,0.00
16.485,0.01,0.17,1.00,1.15,-1.76,1.20,-0.01,-0.48,-1.60,0.00
16.522,0.05,0.14,1.04,1.15,-1.76,1.20,-0.01,-0.48,-1.60,0.00
16.523,0.05,0.14,1.04,1.15,-1.76,1.20,-0.02,-0.57,-1.65,0.00
16.523,0.05,0.14,1.04,1.45,-1.85,1.53,-0.02,-0.57,-1.65,0.00
16.561,-0.03,0.21,0.94,1.45,-1.85,1.53,-0.02,-0.57,-1.65,0.00
16.562,-0.03,0.21,0.94,1.18,-1.37,-0.27,-0.02,-0.57,-1.65,0.00
16.601,-0.03,0.21,0.94,1.18,-1.37,-0.27,0.07,-0.69,-1.80,0.00
16.601,-0.03,0.21,0.94,0.54,-0.90,-0.05,0.07,-0.69,-1.80,0.00
16.64,-0.03,0.21,0.94,0.54,-0.90,-0.05,0.00,-0.46,-1.60,0.00
16.641,-0.03,0.22,1.01,0.54,-0.90,-0.05,0.00,-0.46,-1.60,0.00
16.641,-0.03,0.22,1.01,0.85,-0.84,0.76,0.00,-0.46,-1.60,0.00
16.679,-0.03,0.22,1.01,0.33,-0.65,0.54,0.00,-0.46,-1.60,0.00
16.719,-0.03,0.22,1.01,0.33,-0.65,0.54,-0.01,-0.57,-1.42,0.00
16.72,-0.03,0.22,1.07,0.33,-0.65,0.54,-0.01,-0.57,-1.42,0.00
16.721,-0.03,0.22,1.07,0.45,-0.64,1.41,-0.01,-0.57,-1.42,0.00
16.759,-0.03,0.22,1.07,0.40,-0.76,0.65,-0.01,-0.57,-1.42,0.00
16.799,-0.03,0.22,1.07,0.40,-0.76,0.65,0.15,-0.67,-1.41,0.00
16.799,-0.03,0.22,1.07,0.03,-0.56,0.11,0.15,-0.67,-1.41,0.00
16.8,-0.05,0.23,0.97,0.03,-0.56,0.11,0.15,-0.67,-1.41,0.00
16.838,-0.05,0.23,0.97,0.03,-0.56,0.11,0.15,-0.55,-1.34,0.00
16.839,0.00,0.23,0.96,0.03,-0.56,0.11,0.15,-0.55,-1.34,0.00
16.839,0.00,0.23,0.96,0.34,-0.52,0.37,0.15,-0.55,-1.34,0.00
16.878,0.00,0.23,0.96,0.51,-0.60,0.03,0.15,-0.55,-1.34,0.00
16.917,-0.03,0.26,0.99,0.51,-0.60,0.03,0.15,-0.55,-1.34,0.00
16.918,-0.03,0.26,0.99,0.51,-0.60,0.03,0.17,-0.44,-1.38,0.00
16.918,-0.03,0.26,0.99,0.36,-0.48,0.28,0.17,-0.44,-1.38,0.00
16.957,-0.03,0.26,0.99,-0.14,-0.13,0.60,0.17,-0.44,-1.38,0.00
16.996,-0.07,0.30,1.02,-0.14,-0.13,0.60,0.17,-0.44,-1.38,0.00
16.996,-0.07,0.30,1.02,-0.14,-0.13,0.60,0.16,-0.39,-1.29,0.00
16.997,-0.07,0.30,1.02,-0.28,-0.04,0.73,0.16,-0.39,-1.29,0.00
17.036,-0.02,0.29,0.88,-0.28,-0.04,0.73,0.16,-0.39,-1.29,0.00
17.037,-0.02,0.29,0.88,0.31,-0.20,-0.01,0.16,-0.39,-1.29,0.00
17.075,-0.02,0.29,0.88,0.31,-0.20,-0.01,0.23,-0.45,-1.15,0.00
17.076,-0.02,0.29,0.88,0.18,-0.16,-0.88,0.23,-0.45,-1.15,0.00
17.115,-0.02,0.29,0.88,0.18,-0.16,-0.88,0.06,-0.30,-1.04,0.00
17.116,-0.02,0.29,0.88,-0.21,-0.20,-0.07,0.06,-0.30,-1.04,0.00
17.116,-0.04,0.28,0.93,-0.21,-0.20,-0.07,0.06,-0.30,-1.04,0.00
17.154,-0.04,0.28,0.93,0.23,-0.37,-0.28,0.06,-0.30,-1.04,0.00
17.194,-0.04,0.28,0.93,0.23,-0.37,-0.28,0.05,-0.33,-1.00,0.00
17.194,-0.05,0.30,0.90,0.23,-0.37,-0.28,0.05,-0.33,-1.00,0.00
17.195,-0.05,0.30,0.90,-0.14,-0.14,-0.52,0.05,-0.33,-1.00,0.00
17.233,-0.06,0.30,0.95,-0.14,-0.14,-0.52,0.05,-0.33,-1.00,0.00
17.234,-0.06,0.30,0.95,0.14,-0.14,-0.26,0.05,-0.33,-1.00,0.00
17.275,-0.06,0.30,0.95,0.14,-0.14,-0.26,0.11,-0.14,-0.96,0.00
17.276,-0.06,0.30,0.95,-0.00,-0.14,0.13,0.11,-0.14,-0.96,0.00
17.312,-0.06,0.30,0.95,-0.00,-0.14,0.13,0.10,-0.22,-0.85,0.00
17.313,-0.09,0.30,0.97,-0.00,-0.14,0.13,0.10,-0.22,-0.85,0.00
17.314,-0.09,0.30,0.97,-0.54,-0.02,-0.32,0.10,-0.22,-0.85,0.00
17.352,-0.09,0.30,0.97,-0.17,-0.37,0.73,0.10,-0.22,-0.85,0.00
17.392,-0.09,0.30,0.97,-0.17,-0.37,0.73,0.13,-0.36,-0.81,0.00
17.392,-0.05,0.27,1.05,-0.17,-0.37,0.73,0.13,-0.36,-0.81,0.00
17.393,-0.05,0.27,1.05,-0.05,-0.65,1.50,0.13,-0.36,-0.81,0.00
17.432,-0.05,0.27,1.05,0.16,-0.18,-0.29,0.13,-0.36,-0.81,0.00
17.432,-0.13,0.35,0.88,0.16,-0.18,-0.29,0.13,-0.36,-0.81,0.00
17.471,-0.13,0.35,0.88,0.16,-0.18,-0.29,0.41,-0.38,-0.98,0.00
17.471,-0.13,0.35,0.88,-0.86,0.14,-0.61,0.41,-0.38,-0.98,0.00
17.51,-0.13,0.35,0.88,-0.86,0.14,-0.61,0.08,-0.51,-0.92,0.00
17.511,-0.03,0.30,0.92,-0.86,0.14,-0.61,0.08,-0.51,-0.92,0.00
17.511,-0.03,0.30,0.92,0.17,-0.44,0.87,0.08,-0.51,-0.92,0.00
17.55,-0.03,0.30,0.92,0.05,-0.48,-0.79,0.08,-0.51,-0.92,0.00
17.589,-0.06,0.37,0.77,0.05,-0.48,-0.79,0.08,-0.51,-0.92,0.00
17.59,-0.06,0.37,0.77,0.05,-0.48,-0.79,0.10,-0.50,-1.14,0.00
17.59,-0.06,0.37,0.77,-0.37,0.25,-1.70,0.10,-0.50,-1.14,0.00
17.629,-0.04,0.36,0.90,-0.37,0.25,-1.70,0.10,-0.50,-1.14,0.00
17.63,-0.04,0.36,0.90,0.21,0.28,-1.19,0.10,-0.50,-1.14,0.00
17.674,-0.04,0.36,0.90,0.21,0.28,-1.19,-0.24,-0.43,-1.14,0.00
17.674,-0.04,0.36,0.90,0.01,0.35,-0.28,-0.24,-0.43,-1.14,0.00
17.708,-0.04,0.36,0.90,0.07,0.51,0.34,-0.24,-0.43,-1.14,0.00
17.709,-0.04,0.36,0.90,0.07,0.51,0.34,-0.05,-0.32,-1.19,0.00
17.709,-0.03,0.38,0.90,0.07,0.51,0.34,-0.05,-0.32,-1.19,0.00
17.748,-0.03,0.38,0.90,0.23,0.58,-0.78,-0.05,-0.32,-1.19,0.00
17.788,-0.03,0.38,0.90,0.23,0.58,-0.78,-0.12,-0.47,-1.16,0.00
17.788,-0.06,0.39,0.94,0.23,0.58,-0.78,-0.12,-0.47,-1.16,0.00
17.788,-0.06,0.39,0.94,-0.28,0.78,-0.19,-0.12,-0.47,-1.16,0.00
17.826,-0.06,0.39,0.94,-0.04,0.63,0.45,-0.12,-0.47,-1.16,0.00
17.866,-0.06,0.39,0.94,-0.21,0.70,-0.38,-0.12,-0.47,-1.16,0.00
17.866,-0.06,0.39,0.90,-0.21,0.70,-0.38,-0.12,-0.47,-1.16,0.00
17.866,-0.06,0.39,0.90,-0.21,0.70,-0.38,0.06,-0.43,-1.04,0.00
17.905,-0.06,0.39,0.90,-0.21,0.70,-0.38,0.06,-0.36,-0.90,0.00
17.906,-0.04,0.40,0.95,-0.21,0.70,-0.38,0.06,-0.36,-0.90,0.00
17.906,-0.04,0.40,0.95,-0.32,0.78,-0.21,0.06,-0.36,-0.90,0.00
17.945,-0.04,0.40,0.95,0.02,0.69,0.27,0.06,-0.36,-0.90,0.00
17.985,-0.04,0.40,0.95,-0.21,0.49,0.47,0.06,-0.36,-0.90,0.00
17.985,-0.05,0.39,1.02,-0.21,0.49,0.47,0.06,-0.36,-0.90,0.00
17.986,-0.05,0.39,1.02,-0.21,0.49,0.47,0.16,-0.29,-0.85,0.00
18.024,-0.05,0.39,1.02,-0.18,0.71,1.28,0.16,-0.29,-0.85,0.00
18.064,-0.06,0.36,1.02,-0.18,0.71,1.28,0.16,-0.29,-0.85,0.00
18.064,-0.06,0.36,1.02,-0.18,0.71,1.28,0.15,-0.31,-0.83,0.00
18.065,-0.06,0.36,1.02,-0.32,0.20,0.82,0.15,-0.31,-0.83,0.00
18.103,-0.06,0.36,1.02,0.04,-0.38,0.45,0.15,-0.31,-0.83,0.00
18.103,-0.06,0.22,1.01,0.04,-0.38,0.45,0.15,-0.31,-0.83,0.00
18.143,-0.06,0.22,1.01,0.04,-0.38,0.45,0.02,-0.31,-0.78,0.00
18.143,-0.06,0.22,1.01,-0.30,-1.36,0.79,0.02,-0.31,-0.78,0.00
18.183,-0.06,0.22,1.01,-0.30,-1.36,0.79,0.15,-0.36,-0.87,0.00
18.183,0.04,0.20,0.97,-0.30,-1.36,0.79,0.15,-0.36,-0.87,0.00
18.183,0.04,0.20,0.97,0.36,-1.38,1.24,0.15,-0.36,-0.87,0.00
18.222,0.04,0.20,0.97,1.11,-1.31,-0.80,0.15,-0.36,-0.87,0.00
18.262,-0.00,0.27,0.94,1.11,-1.31,-0.80,0.15,-0.36,-0.87,0.00
18.262,-0.00,0.27,0.94,1.11,-1.31,-0.80,0.13,-0.36,-1.04,0.00
18.263,-0.00,0.27,0.94,0.37,-0.75,0.17,0.13,-0.36,-1.04,0.00
18.301,-0.05,0.25,0.93,0.37,-0.75,0.17,0.13,-0.36,-1.04,0.00
18.301,-0.05,0.25,0.93,0.10,-0.95,-0.54,0.13,-0.36,-1.04,0.00
18.34,-0.05,0.25,0.93,0.10,-0.95,-0.54,0.02,-0.20,-0.88,0.00
18.341,-0.05,0.25,0.93,-0.13,-0.82,0.06,0.02,-0.20,-0.88,0.00
18.38,-0.04,0.31,0.80,-0.13,-0.82,0.06,0.02,-0.20,-0.88,0.00
18.381,-0.04,0.31,0.80,0.04,-0.55,-1.20,0.02,-0.20,-0.88,0.00
18.381,-0.04,0.31,0.80,0.04,-0.55,-1.20,0.02,-0.37,-0.83,0.00
18.419,-0.04,0.31,0.80,-0.19,-0.08,-1.41,0.02,-0.37,-0.83,0.00
18.459,-0.04,0.31,0.80,-0.19,-0.08,-1.41,-0.05,-0.14,-0.68,0.00
18.46,-0.04,0.31,0.80,-0.14,0.11,-1.31,-0.05,-0.14,-0.68,0.00
18.461,-0.06,0.35,0.81,-0.14,0.11,-1.31,-0.05,-0.14,-0.68,0.00
18.499,-0.10,0.39,1.00,-0.14,0.11,-1.31,-0.05,-0.14,-0.68,0.00
18.499,-0.10,0.39,1.00,-0.35,0.34,-0.54,-0.05,-0.14,-0.68,0.00
18.538,-0.10,0.39,1.00,-0.51,0.71,0.79,-0.05,-0.14,-0.68,0.00
18.539,-0.10,0.39,1.00,-0.51,0.71,0.79,-0.13,-0.07,-0.50,0.00
18.579,-0.10,0.39,1.00,-0.51,0.71,0.79,0.12,0.04,-0.24,0.00
18.58,-0.09,0.42,0.98,-0.51,0.71,0.79,0.12,0.04,-0.24,0.00
18.58,-0.09,0.42,0.98,-0.34,0.85,0.63,0.12,0.04,-0.24,0.00
18.617,-0.09,0.42,0.98,-0.28,0.83,0.41,0.12,0.04,-0.24,0.00
18.656,-0.09,0.42,0.98,-0.28,0.83,0.41,0.11,0.01,-0.01,0.00
18.657,-0.08,0.39,0.99,-0.28,0.83,0.41,0.11,0.01,-0.01,0.00
18.657,-0.08,0.39,0.99,-0.24,0.57,0.51,0.11,0.01,-0.01,0.00
18.696,-0.06,0.37,1.07,-0.24,0.57,0.51,0.11,0.01,-0.01,0.00
18.696,-0.06,0.37,1.07,-0.02,0.21,0.75,0.11,0.01,-0.01,0.00
18.735,-0.06,0.37,1.07,-0.02,0.21,0.75,0.05,0.20,0.11,0.00
18.736,-0.06,0.37,1.07,0.06,0.18,1.35,0.05,0.20,0.11,0.00
18.775,-0.06,0.37,1.07,0.06,0.18,1.35,-0.03,0.18,0.17,0.00
18.776,-0.10,0.30,0.99,0.06,0.18,1.35,-0.03,0.18,0.17,0.00
18.776,-0.10,0.30,0.99,-0.53,-0.05,0.77,-0.03,0.18,0.17,0.00
18.815,-0.10,0.30,0.99,-0.10,-0.62,0.45,-0.03,0.18,0.17,0.00
18.854,-0.10,0.30,0.99,-0.10,-0.62,0.45,-0.03,0.07,0.24,0.00
18.855,-0.15,0.26,0.97,-0.10,-0.62,0.45,-0.03,0.07,0.24,0.00
18.855,-0.15,0.26,0.97,-0.98,-0.81,0.90,-0.03,0.07,0.24,0.00
18.893,-0.14,0.27,0.82,-0.98,-0.81,0.90,-0.03,0.07,0.24,0.00
18.894,-0.14,0.27,0.82,-0.28,-0.92,-0.91,-0.03,0.07,0.24,0.00
18.933,-0.14,0.27,0.82,-0.28,-0.92,-0.91,0.17,-0.05,0.30,0.00
18.934,-0.14,0.27,0.82,-0.72,-0.78,-1.08,0.17,-0.05,0.30,0.00
18.973,-0.14,0.27,0.82,-0.72,-0.78,-1.08,-0.13,0.20,0.50,0.00
18.974,-0.11,0.27,0.91,-0.72,-0.78,-1.08,-0.13,0.20,0.50,0.00
18.974,-0.11,0.27,0.91,-0.85,-0.79,-1.00,-0.13,0.20,0.50,0.00
19.012,-0.11,0.27,0.91,-0.19,-0.69,0.17,-0.13,0.20,0.50,0.00
19.052,-0.11,0.27,0.91,-0.19,-0.69,0.17,-0.09,0.17,0.47,0.00
19.052,-0.04,0.31,0.89,-0.19,-0.69,0.17,-0.09,0.17,0.47,0.00
19.052,-0.04,0.31,0.89,0.53,-0.51,0.03,-0.09,0.17,0.47,0.00
19.091,-0.04,0.31,0.89,-0.12,0.07,-1.29,-0.09,0.17,0.47,0.00
19.131,-0.04,0.31,0.89,-0.12,0.07,-1.29,-0.10,0.04,0.34,0.00
19.132,-0.07,0.36,0.87,-0.12,0.07,-1.29,-0.10,0.04,0.34,0.00
19.132,-0.07,0.36,0.87,-0.06,0.30,-0.66,-0.10,0.04,0.34,0.00
19.171,-0.07,0.36,0.87,-0.06,0.30,-0.66,0.02,-0.05,0.21,0.00
19.171,-0.05,0.41,0.91,-0.06,0.30,-0.66,0.02,-0.05,0.21,0.00
19.171,-0.05,0.41,0.91,0.44,0.29,0.06,0.02,-0.05,0.21,0.00
19.21,-0.05,0.41,0.91,-0.06,0.77,-0.35,0.02,-0.05,0.21,0.00
19.25,-0.05,0.41,0.91,-0.06,0.77,-0.35,0.22,-0.16,0.07,0.00
19.25,-0.06,0.46,0.90,-0.06,0.77,-0.35,0.22,-0.16,0.07,0.00
19.25,-0.06,0.46,0.90,-0.21,1.06,-0.58,0.22,-0.16,0.07,0.00
19.289,-0.06,0.46,0.90,-0.07,0.93,0.15,0.22,-0.16,0.07,0.00
19.329,-0.06,0.46,0.90,-0.07,0.93,0.15,0.25,-0.05,0.05,0.00
19.329,-0.08,0.44,1.00,-0.07,0.93,0.15,0.25,-0.05,0.05,0.00
19.33,-0.08,0.44,1.00,-0.34,0.66,0.75,0.25,-0.05,0.05,0.00
19.368,0.01,0.42,1.01,-0.34,0.66,0.75,0.25,-0.05,0.05,0.00
19.369,0.01,0.42,1.01,-0.47,0.61,0.80,0.25,-0.05,0.05,0.00
19.408,0.01,0.42,1.01,-0.47,0.61,0.80,0.18,-0.12,0.11,0.00
19.408,0.01,0.42,1.01,0.69,0.34,0.85,0.18,-0.12,0.11,0.00
19.448,0.01,0.42,1.01,0.69,0.34,0.85,0.01,0.03,-0.03,0.00
19.449,0.05,0.32,1.09,0.69,0.34,0.85,0.01,0.03,-0.03,0.00
19.449,0.05,0.32,1.09,0.97,-0.25,2.03,0.01,0.03,-0.03,0.00
19.487,0.05,0.32,1.09,0.73,-1.05,1.27,0.01,0.03,-0.03,0.00
19.526,0.05,0.32,1.09,0.73,-1.05,1.27,0.21,-0.30,-0.39,0.00
19.527,-0.01,0.23,0.65,0.73,-1.05,1.27,0.21,-0.30,-0.39,0.00
19.527,-0.01,0.23,0.65,0.05,-1.60,-3.26,0.21,-0.30,-0.39,0.00
19.566,0.07,0.26,1.07,0.05,-1.60,-3.26,0.21,-0.30,-0.39,0.00
19.567,0.07,0.26,1.07,0.70,-1.20,0.40,0.21,-0.30,-0.39,0.00
19.605,0.07,0.26,1.07,0.70,-1.20,0.40,-0.26,0.18,-0.50,0.00
19.606,0.07,0.26,1.07,1.27,-1.23,1.61,-0.26,0.18,-0.50,0.00
19.645,0.07,0.26,1.07,1.27,-1.23,1.61,0.19,0.12,-0.63,0.00
19.646,-0.04,0.31,0.83,1.27,-1.23,1.61,0.19,0.12,-0.63,0.00
19.646,-0.04,0.31,0.83,0.27,-0.81,-1.44,0.19,0.12,-0.63,0.00
19.687,-0.04,0.31,0.83,0.12,-0.52,-0.43,0.19,0.12,-0.63,0.00
19.724,-0.04,0.31,0.83,0.66,-0.42,-0.25,0.19,0.12,-0.63,0.00
19.725,-0.04,0.31,0.83,0.66,-0.42,-0.25,-0.35,-0.32,-0.46,0.00
19.725,-0.00,0.33,0.89,0.66,-0.42,-0.25,-0.35,-0.32,-0.46,0.00
19.764,-0.06,0.37,0.79,0.66,-0.42,-0.25,-0.35,-0.32,-0.46,0.00
19.765,-0.06,0.37,0.79,0.02,0.04,-0.39,-0.35,-0.32,-0.46,0.00
19.804,-0.06,0.37,0.79,0.02,0.04,-0.39,-0.12,0.05,-0.35,0.00
19.804,-0.06,0.37,0.79,0.00,0.21,-1.35,-0.12,0.05,-0.35,0.00
19.843,-0.06,0.37,0.79,0.00,0.21,-1.35,-0.33,-0.10,-0.19,0.00
19.844,-0.01,0.37,1.01,0.00,0.21,-1.35,-0.33,-0.10,-0.19,0.00
19.845,-0.01,0.37,1.01,0.58,0.23,-0.01,-0.33,-0.10,-0.19,0.00
19.883,-0.01,0.37,1.01,0.52,0.45,1.26,-0.33,-0.10,-0.19,0.00
19.923,-0.01,0.37,1.01,0.52,0.45,1.26,0.17,0.01,-0.28,0.00
19.924,-0.01,0.37,1.01,-0.01,0.81,-0.92,0.17,0.01,-0.28,0.00
19.924,-0.09,0.44,0.87,-0.01,0.81,-0.92,0.17,0.01,-0.28,0.00
19.962,-0.09,0.44,0.87,-0.66,1.17,0.23,0.17,0.01,-0.28,0.00
19.963,-0.15,0.41,1.10,-0.66,1.17,0.23,0.17,0.01,-0.28,0.00
20.001,-0.15,0.41,1.10,-0.59,0.64,1.68,0.17,0.01,-0.28,0.00
20.002,-0.15,0.41,1.10,-0.59,0.64,1.68,-0.05,0.23,-0.03,0.00
20.041,-0.15,0.41,1.10,-0.59,0.64,1.68,0.01,0.32,0.21,0.00
20.042,-0.12,0.32,1.08,-0.59,0.64,1.68,0.01,0.32,0.21,0.00
20.043,-0.12,0.32,1.08,-0.25,0.20,2.07,0.01,0.32,0.21,0.00
20.08,-0.12,0.32,1.08,-0.17,-0.41,1.18,0.01,0.32,0.21,0.00
20.12,-0.12,0.32,1.08,-0.17,-0.41,1.18,-0.08,0.24,0.22,0.00
20.121,-0.14,0.26,1.06,-0.17,-0.41,1.18,-0.08,0.24,0.22,0.00
20.121,-0.14,0.26,1.06,-0.26,-0.61,1.57,-0.08,0.24,0.22,0.00
20.159,-0.14,0.26,1.06,-0.50,-1.13,0.65,-0.08,0.24,0.22,0.00
20.199,-0.14,0.26,1.06,0.35,-1.20,-1.22,-0.08,0.24,0.22,0.00
20.199,-0.06,0.24,0.80,0.35,-1.20,-1.22,-0.08,0.24,0.22,0.00
20.2,-0.06,0.24,0.80,0.35,-1.20,-1.22,0.23,-0.12,0.19,0.00
20.239,-0.21,0.30,0.84,0.35,-1.20,-1.22,0.23,-0.12,0.19,0.00
20.24,-0.21,0.30,0.84,0.35,-1.20,-1.22,0.22,0.22,0.17,0.00
20.24,-0.21,0.30,0.84,-0.38,-0.65,-1.06,0.22,0.22,0.17,0.00
20.278,-0.21,0.30,0.84,-1.23,-0.60,-0.65,0.22,0.22,0.17,0.00
20.318,-0.21,0.30,0.84,-0.03,-0.81,0.00,0.22,0.22,0.17,0.00
20.318,-0.21,0.30,0.84,-0.03,-0.81,0.00,-0.11,0.01,0.44,0.00
20.319,-0.09,0.29,0.90,-0.03,-0.81,0.00,-0.11,0.01,0.44,0.00
20.357,-0.09,0.29,0.90,0.16,-0.37,-0.68,-0.11,0.01,0.44,0.00
20.397,-0.11,0.37,0.84,0.16,-0.37,-0.68,-0.11,0.01,0.44,0.00
20.398,-0.11,0.37,0.84,-0.37,0.10,-0.78,-0.11,0.01,0.44,0.00
20.398,-0.11,0.37,0.84,-0.37,0.10,-0.78,-0.08,-0.07,0.34,0.00
20.436,-0.11,0.37,0.84,0.46,0.02,-0.93,-0.08,-0.07,0.34,0.00
20.437,-0.07,0.37,0.80,0.46,0.02,-0.93,-0.08,-0.07,0.34,0.00
20.475,-0.07,0.37,0.80,0.46,0.02,-0.93,-0.10,-0.17,0.30,0.00
20.476,-0.07,0.37,0.80,-0.12,0.23,-1.25,-0.10,-0.17,0.30,0.00
20.515,-0.07,0.37,0.80,-0.12,0.23,-1.25,0.05,-0.05,0.08,0.00
20.516,-0.07,0.46,0.87,-0.12,0.23,-1.25,0.05,-0.05,0.08,0.00
20.516,-0.07,0.46,0.87,-0.37,0.90,-0.82,0.05,-0.05,0.08,0.00
20.555,-0.07,0.46,0.87,0.39,0.95,0.01,0.05,-0.05,0.08,0.00
20.594,-0.07,0.46,0.87,0.39,0.95,0.01,0.25,0.07,-0.07,0.00
20.595,-0.07,0.46,0.87,0.17,1.10,0.60,0.25,0.07,-0.07,0.00
20.595,-0.06,0.50,0.99,0.17,1.10,0.60,0.25,0.07,-0.07,0.00
20.634,-0.07,0.47,1.05,0.17,1.10,0.60,0.25,0.07,-0.07,0.00
20.635,-0.07,0.47,1.05,-0.36,1.14,1.98,0.25,0.07,-0.07,0.00
20.673,-0.07,0.47,1.05,-0.36,1.14,1.98,0.35,-0.07,0.04,0.00
20.674,-0.07,0.47,1.05,-0.11,0.56,1.29,0.35,-0.07,0.04,0.00
20.713,-0.07,0.47,1.05,-0.11,0.56,1.29,0.24,-0.41,0.04,0.00
20.714,0.12,0.41,1.12,-0.11,0.56,1.29,0.24,-0.41,0.04,0.00
20.714,0.12,0.41,1.12,1.71,0.33,2.04,0.24,-0.41,0.04,0.00
20.753,0.12,0.41,1.12,1.32,-0.58,2.00,0.24,-0.41,0.04,0.00
20.792,0.12,0.41,1.12,1.32,-0.58,2.00,0.42,-0.23,-0.41,0.00
20.793,-0.08,0.30,1.05,1.32,-0.58,2.00,0.42,-0.23,-0.41,0.00
20.793,-0.08,0.30,1.05,-0.61,-1.17,2.14,0.42,-0.23,-0.41,0.00
20.831,0.10,0.26,0.66,-0.61,-1.17,2.14,0.42,-0.23,-0.41,0.00
20.832,0.10,0.26,0.66,-0.06,-2.26,-1.21,0.42,-0.23,-0.41,0.00
20.871,0.10,0.26,0.66,-0.06,-2.26,-1.21,0.51,-0.75,-0.53,0.00
20.872,0.10,0.26,0.66,1.26,-1.86,-2.30,0.51,-0.75,-0.53,0.00
20.911,0.10,0.26,0.66,1.26,-1.86,-2.30,-0.05,0.01,-0.66,0.00
20.911,0.00,0.28,0.82,1.26,-1.86,-2.30,-0.05,0.01,-0.66,0.00
20.911,0.00,0.28,0.82,0.72,-1.37,-0.48,-0.05,0.01,-0.66,0.00
20.951,0.00,0.28,0.82,0.00,-1.76,-0.82,-0.05,0.01,-0.66,0.00
20.991,0.00,0.28,0.82,0.00,-1.76,-0.82,-0.33,-0.20,-0.58,0.00
20.992,0.04,0.26,0.87,0.00,-1.76,-0.82,-0.33,-0.20,-0.58,0.00
20.992,0.04,0.26,0.87,0.63,-1.76,-0.16,-0.33,-0.20,-0.58,0.00
21.03,-0.03,0.35,0.86,0.63,-1.76,-0.16,-0.33,-0.20,-0.58,0.00
21.031,-0.03,0.35,0.86,0.89,-1.05,-0.43,-0.33,-0.20,-0.58,0.00
21.069,-0.03,0.35,0.86,0.89,-1.05,-0.43,-0.24,-0.18,-0.73,0.00
21.07,-0.03,0.35,0.86,0.08,-0.45,-0.41,-0.24,-0.18,-0.73,0.00
21.109,-0.03,0.35,0.86,0.08,-0.45,-0.41,-0.24,-0.08,-0.55,0.00
21.11,-0.03,0.35,0.86,-0.28,-0.25,-0.39,-0.24,-0.08,-0.55,0.00
21.11,-0.03,0.39,0.88,-0.28,-0.25,-0.39,-0.24,-0.08,-0.55,0.00
21.149,-0.03,0.39,0.88,0.34,0.14,-0.19,-0.24,-0.08,-0.55,0.00
21.188,-0.03,0.39,0.88,0.34,0.14,-0.19,-0.21,-0.24,-0.45,0.00
21.189,-0.05,0.45,0.91,0.34,0.14,-0.19,-0.21,-0.24,-0.45,0.00
21.189,-0.05,0.45,0.91,0.21,0.64,-0.48,-0.21,-0.24,-0.45,0.00
21.227,-0.05,0.45,0.91,-0.38,0.86,1.06,-0.21,-0.24,-0.45,0.00
21.267,-0.11,0.44,1.09,-0.38,0.86,1.06,-0.21,-0.24,-0.45,0.00
21.267,-0.11,0.44,1.09,-0.38,0.86,1.06,-0.11,0.25,-0.17,0.00
21.268,-0.11,0.44,1.09,-0.49,0.61,1.69,-0.11,0.25,-0.17,0.00
21.306,-0.11,0.44,1.09,-0.20,0.29,0.63,-0.11,0.25,-0.17,0.00
21.307,-0.04,0.39,0.99,-0.20,0.29,0.63,-0.11,0.25,-0.17,0.00
21.307,-0.04,0.39,0.99,-0.20,0.29,0.63,0.04,-0.23,-0.04,0.00
21.346,-0.04,0.39,0.99,0.34,0.01,0.75,0.04,-0.23,-0.04,0.00
21.385,-0.04,0.39,0.99,0.34,0.01,0.75,0.32,0.03,-0.22,0.00
21.385,-0.03,0.42,0.91,0.34,0.01,0.75,0.32,0.03,-0.22,0.00
21.386,-0.03,0.42,0.91,0.32,0.10,-0.02,0.32,0.03,-0.22,0.00
21.424,-0.03,0.42,0.91,0.27,0.39,0.14,0.32,0.03,-0.22,0.00
21.464,-0.03,0.42,0.91,0.27,0.39,0.14,0.14,0.19,-0.24,0.00
21.465,-0.04,0.37,0.99,0.27,0.39,0.14,0.14,0.19,-0.24,0.00
21.465,-0.04,0.37,0.99,0.46,-0.26,0.69,0.14,0.19,-0.24,0.00
21.503,-0.02,0.27,0.93,0.46,-0.26,0.69,0.14,0.19,-0.24,0.00
21.504,-0.02,0.27,0.93,0.20,-1.01,1.91,0.14,0.19,-0.24,0.00
21.543,-0.02,0.27,0.93,0.20,-1.01,1.91,0.15,0.02,-0.21,0.00
21.543,-0.02,0.27,0.93,0.64,-1.51,-0.35,0.15,0.02,-0.21,0.00
21.583,-0.02,0.27,0.93,0.64,-1.51,-0.35,0.42,-0.39,-0.50,0.00
21.583,-0.00,0.37,0.75,0.64,-1.51,-0.35,0.42,-0.39,-0.50,0.00
21.584,-0.00,0.37,0.75,0.75,-0.85,-1.53,0.42,-0.39,-0.50,0.00
21.622,-0.00,0.37,0.75,0.57,-0.31,-1.21,0.42,-0.39,-0.50,0.00
21.662,-0.00,0.37,0.75,0.57,-0.31,-1.21,0.09,-0.04,-0.48,0.00
21.662,-0.07,0.40,0.89,0.57,-0.31,-1.21,0.09,-0.04,-0.48,0.00
21.662,-0.07,0.40,0.89,0.18,-0.30,-0.24,0.09,-0.04,-0.48,0.00
21.701,0.04,0.34,1.10,0.18,-0.30,-0.24,0.09,-0.04,-0.48,0.00
21.702,0.04,0.34,1.10,0.18,-0.27,1.85,0.09,-0.04,-0.48,0.00
21.741,0.04,0.34,1.10,0.18,-0.27,1.85,-0.32,-0.18,-0.43,0.00
21.742,0.04,0.34,1.10,1.34,-0.77,1.86,-0.32,-0.18,-0.43,0.00
21.78,0.04,0.34,1.10,1.34,-0.77,1.86,0.04,-0.69,-0.92,0.00
21.781,0.04,0.34,1.10,0.95,-0.69,-0.26,0.04,-0.69,-0.92,0.00
21.781,0.01,0.34,0.82,0.95,-0.69,-0.26,0.04,-0.69,-0.92,0.00
21.82,0.01,0.34,0.82,0.41,-0.64,-1.46,0.04,-0.69,-0.92,0.00
21.86,0.01,0.34,0.82,0.41,-0.64,-1.46,0.11,-0.53,-1.25,0.00
21.861,-0.01,0.33,0.82,0.41,-0.64,-1.46,0.11,-0.53,-1.25,0.00
21.861,-0.01,0.33,0.82,0.55,-0.75,-0.80,0.11,-0.53,-1.25,0.00
21.899,-0.01,0.33,0.82,0.23,-0.42,-0.66,0.11,-0.53,-1.25,0.00
21.899,-0.06,0.36,0.95,0.23,-0.42,-0.66,0.11,-0.53,-1.25,0.00
21.939,-0.06,0.36,0.95,0.23,-0.42,-0.66,0.00,-0.57,-1.46,0.00
21.94,-0.06,0.36,0.95,0.12,-0.38,0.61,0.00,-0.57,-1.46,0.00
21.978,-0.06,0.36,0.95,0.12,-0.38,0.61,0.05,-0.52,-1.50,0.00
21.979,-0.06,0.36,0.95,-0.09,-0.60,0.81,0.05,-0.52,-1.50,0.00
21.979,-0.08,0.32,1.00,-0.09,-0.60,0.81,0.05,-0.52,-1.50,0.00
22.018,-0.08,0.32,1.00,0.02,-0.73,0.89,0.05,-0.52,-1.50,0.00
22.058,-0.08,0.32,1.00,0.02,-0.73,0.89,0.07,-0.64,-1.60,0.00
22.059,-0.10,0.28,1.02,0.02,-0.73,0.89,0.07,-0.64,-1.60,0.00
22.059,-0.10,0.28,1.02,-0.17,-1.04,1.30,0.07,-0.64,-1.60,0.00
22.097,-0.10,0.28,1.02,-0.50,-1.10,0.29,0.07,-0.64,-1.60,0.00
22.097,-0.00,0.25,0.86,-0.50,-1.10,0.29,0.07,-0.64,-1.60,0.00
22.137,-0.00,0.25,0.86,-0.50,-1.10,0.29,0.14,-0.71,-1.67,0.00
22.138,-0.00,0.25,0.86,0.87,-1.25,-0.56,0.14,-0.71,-1.67,0.00
22.176,-0.00,0.25,0.86,0.87,-1.25,-0.56,-0.06,-0.46,-1.79,0.00
22.177,-0.07,0.23,1.04,0.87,-1.25,-0.56,-0.06,-0.46,-1.79,0.00
22.177,-0.07,0.23,1.04,0.29,-1.29,1.50,-0.06,-0.46,-1.79,0.00
22.216,-0.07,0.23,1.04,0.20,-1.41,0.96,-0.06,-0.46,-1.79,0.00
22.255,-0.01,0.23,0.86,0.20,-1.41,0.96,-0.06,-0.46,-1.79,0.00
22.256,-0.01,0.23,0.86,0.20,-1.41,0.96,0.11,-0.73,-1.79,0.00
22.257,-0.01,0.23,0.86,0.64,-1.32,-0.79,0.11,-0.73,-1.79,0.00
22.296,-0.02,0.24,0.97,0.64,-1.32,-0.79,0.11,-0.73,-1.79,0.00
22.297,-0.02,0.24,0.97,1.04,-0.99,-0.31,0.11,-0.73,-1.79,0.00
22.335,-0.02,0.24,0.97,0.75,-0.92,0.40,0.11,-0.73,-1.79,0.00
22.335,-0.02,0.24,0.97,0.75,-0.92,0.40,-0.06,-0.53,-1.70,0.00
22.374,0.02,0.23,1.05,0.75,-0.92,0.40,-0.06,-0.53,-1.70,0.00
22.375,0.02,0.23,1.05,0.90,-1.02,1.51,-0.06,-0.53,-1.70,0.00
22.375,0.02,0.23,1.05,0.90,-1.02,1.51,-0.06,-0.60,-1.60,0.00
22.413,0.02,0.23,1.05,1.02,-0.92,0.97,-0.06,-0.60,-1.60,0.00
22.454,0.02,0.23,1.05,1.02,-0.92,0.97,-0.03,-0.85,-1.62,0.00
22.455,0.02,0.23,1.05,1.71,-0.32,0.41,-0.03,-0.85,-1.62,0.00
22.455,0.09,0.26,0.99,1.71,-0.32,0.41,-0.03,-0.85,-1.62,0.00
22.492,0.09,0.26,0.99,1.22,-0.76,0.72,-0.03,-0.85,-1.62,0.00
22.532,0.09,0.26,0.99,1.22,-0.76,0.72,0.03,-0.60,-1.72,0.00
22.533,-0.01,0.25,1.07,1.22,-0.76,0.72,0.03,-0.60,-1.72,0.00
22.533,-0.01,0.25,1.07,0.40,-0.52,1.25,0.03,-0.60,-1.72,0.00
22.572,0.07,0.25,0.98,0.40,-0.52,1.25,0.03,-0.60,-1.72,0.00
22.573,0.07,0.25,0.98,0.40,-0.52,1.25,0.04,-0.67,-1.63,0.00
22.573,0.07,0.25,0.98,0.90,-0.56,1.03,0.04,-0.67,-1.63,0.00
22.611,0.07,0.25,0.98,1.33,-0.33,0.02,0.04,-0.67,-1.63,0.00
22.651,0.07,0.25,0.98,1.33,-0.33,0.02,-0.24,-0.26,-1.82,0.00
22.652,-0.04,0.22,1.01,1.33,-0.33,0.02,-0.24,-0.26,-1.82,0.00
22.652,-0.04,0.22,1.01,0.29,-0.42,0.47,-0.24,-0.26,-1.82,0.00
22.69,-0.04,0.22,1.01,0.29,-0.61,0.57,-0.24,-0.26,-1.82,0.00
22.729,-0.04,0.22,1.01,0.32,-0.69,0.34,-0.24,-0.26,-1.82,0.00
22.73,-0.03,0.20,0.99,0.32,-0.69,0.34,-0.24,-0.26,-1.82,0.00
22.73,-0.03,0.20,0.99,0.32,-0.69,0.34,0.03,-0.38,-1.58,0.00
22.77,0.00,0.24,0.94,0.32,-0.69,0.34,0.03,-0.38,-1.58,0.00
22.771,0.00,0.24,0.94,0.70,-0.59,0.03,0.03,-0.38,-1.58,0.00
22.809,0.00,0.24,0.94,0.70,-0.59,0.03,0.29,-0.58,-1.46,0.00
22.809,0.00,0.24,0.94,0.59,-0.40,-0.20,0.29,-0.58,-1.46,0.00
22.848,0.00,0.24,0.94,0.59,-0.40,-0.20,0.25,-0.38,-1.35,0.00
22.849,-0.03,0.27,0.95,0.59,-0.40,-0.20,0.25,-0.38,-1.35,0.00
22.849,-0.03,0.27,0.95,0.43,-0.09,-0.15,0.25,-0.38,-1.35,0.00
22.888,-0.03,0.27,0.95,0.20,-0.28,0.22,0.25,-0.38,-1.35,0.00
22.928,-0.03,0.27,0.95,0.20,-0.28,0.22,0.15,-0.31,-1.17,0.00
22.928,-0.08,0.27,0.95,0.20,-0.28,0.22,0.15,-0.31,-1.17,0.00
22.929,-0.08,0.27,0.95,-0.16,-0.24,0.04,0.15,-0.31,-1.17,0.00
22.967,-0.09,0.27,0.96,-0.16,-0.24,0.04,0.15,-0.31,-1.17,0.00
22.968,-0.09,0.27,0.96,-0.10,-0.21,-0.13,0.15,-0.31,-1.17,0.00
23.006,-0.09,0.27,0.96,-0.10,-0.21,-0.13,0.07,-0.34,-1.01,0.00
23.007,-0.09,0.27,0.96,-0.29,-0.19,0.14,0.07,-0.34,-1.01,0.00
23.046,-0.09,0.25,0.97,-0.29,-0.19,0.14,0.07,-0.34,-1.01,0.00
23.047,-0.09,0.25,0.97,-0.29,-0.19,0.14,0.12,-0.27,-0.84,0.00
23.047,-0.09,0.25,0.97,-0.43,-0.44,0.28,0.12,-0.27,-0.84,0.00
23.085,-0.09,0.25,0.97,-0.10,-0.36,0.13,0.12,-0.27,-0.84,0.00
23.125,-0.09,0.25,0.97,-0.10,-0.36,0.13,0.21,-0.24,-0.75,0.00
23.125,-0.13,0.25,0.97,-0.10,-0.36,0.13,0.21,-0.24,-0.75,0.00
23.125,-0.13,0.25,0.97,-0.53,-0.51,0.19,0.21,-0.24,-0.75,0.00
23.164,-0.13,0.27,0.96,-0.53,-0.51,0.19,0.21,-0.24,-0.75,0.00
23.165,-0.13,0.27,0.96,-0.56,-0.30,0.01,0.21,-0.24,-0.75,0.00
23.205,-0.13,0.27,0.96,-0.56,-0.30,0.01,0.22,-0.50,-0.63,0.00
23.205,-0.13,0.27,0.96,-0.67,-0.28,0.06,0.22,-0.50,-0.63,0.00
23.244,-0.09,0.27,0.94,-0.67,-0.28,0.06,0.22,-0.50,-0.63,0.00
23.245,-0.09,0.27,0.94,-0.67,-0.28,0.06,0.08,-0.50,-0.65,0.00
23.245,-0.09,0.27,0.94,-0.57,-0.27,-0.06,0.08,-0.50,-0.65,0.00
23.283,-0.09,0.27,0.94,-0.07,-0.25,-0.07,0.08,-0.50,-0.65,0.00
23.322,-0.09,0.27,0.94,-0.07,-0.25,-0.07,-0.06,-0.31,-0.78,0.00
23.323,-0.13,0.25,0.98,-0.07,-0.25,-0.07,-0.06,-0.31,-0.78,0.00
23.323,-0.13,0.25,0.98,-0.61,-0.33,0.20,-0.06,-0.31,-0.78,0.00
23.363,-0.11,0.27,0.89,-0.61,-0.33,0.20,-0.06,-0.31,-0.78,0.00
23.363,-0.11,0.27,0.89,-0.78,-0.18,0.23,-0.06,-0.31,-0.78,0.00
23.402,-0.11,0.27,0.89,-0.78,-0.18,0.23,-0.05,-0.33,-0.87,0.00
23.402,-0.11,0.27,0.89,-0.40,0.00,-0.69,-0.05,-0.33,-0.87,0.00
23.443,-0.11,0.27,0.89,-0.40,0.00,-0.69,-0.05,-0.25,-0.92,0.00
23.443,-0.11,0.31,0.86,-0.40,0.00,-0.69,-0.05,-0.25,-0.92,0.00
23.444,-0.11,0.31,0.86,-0.60,0.42,-0.97,-0.05,-0.25,-0.92,0.00
23.482,-0.11,0.31,0.86,-0.21,0.44,-0.83,-0.05,-0.25,-0.92,0.00
23.521,-0.14,0.34,0.90,-0.21,0.44,-0.83,-0.05,-0.25,-0.92,0.00
23.521,-0.14,0.34,0.90,-0.21,0.44,-0.83,-0.01,-0.06,-0.90,0.00
23.521,-0.14,0.34,0.90,-0.56,0.64,-0.36,-0.01,-0.06,-0.90,0.00
23.56,-0.14,0.34,0.90,-0.44,0.93,-0.74,-0.01,-0.06,-0.90,0.00
23.599,-0.14,0.34,0.90,-0.44,0.93,-0.74,0.00,-0.22,-0.75,0.00
23.601,-0.11,0.39,0.87,-0.44,0.93,-0.74,0.00,-0.22,-0.75,0.00
23.601,-0.11,0.39,0.87,-0.17,1.28,-0.76,0.00,-0.22,-0.75,0.00
23.639,-0.11,0.39,0.87,-0.26,1.22,-0.27,0.00,-0.22,-0.75,0.00
23.64,-0.10,0.38,0.93,-0.26,1.22,-0.27,0.00,-0.22,-0.75,0.00
23.64,-0.10,0.38,0.93,-0.26,1.22,-0.27,-0.13,-0.14,-0.62,0.00
23.679,-0.10,0.38,0.93,-0.04,1.27,-0.17,-0.13,-0.14,-0.62,0.00
23.718,-0.10,0.38,0.93,-0.04,1.27,-0.17,0.04,-0.29,-0.57,0.00
23.719,-0.08,0.41,0.91,-0.04,1.27,-0.17,0.04,-0.29,-0.57,0.00
23.719,-0.08,0.41,0.91,-0.13,1.43,-0.39,0.04,-0.29,-0.57,0.00
23.758,-0.08,0.41,0.91,0.13,1.55,-0.36,0.04,-0.29,-0.57,0.00
23.798,-0.08,0.41,0.91,0.13,1.55,-0.36,0.11,-0.24,-0.51,0.00
23.798,-0.08,0.41,0.91,-0.05,1.47,0.04,0.11,-0.24,-0.51,0.00
23.799,-0.08,0.42,0.96,-0.05,1.47,0.04,0.11,-0.24,-0.51,0.00
23.837,-0.08,0.42,0.96,-0.10,1.31,0.87,0.11,-0.24,-0.51,0.00
23.838,-0.07,0.38,1.07,-0.10,1.31,0.87,0.11,-0.24,-0.51,0.00
23.877,-0.07,0.38,1.07,-0.10,1.31,0.87,0.15,-0.24,-0.45,0.00
23.878,-0.07,0.38,1.07,-0.00,0.90,1.28,0.15,-0.24,-0.45,0.00
23.916,-0.02,0.38,1.02,-0.00,0.90,1.28,0.15,-0.24,-0.45,0.00
23.917,-0.02,0.38,1.02,-0.00,0.90,1.28,0.26,-0.40,-0.52,0.00
23.917,-0.02,0.38,1.02,0.26,1.02,0.80,0.26,-0.40,-0.52,0.00
23.956,-0.02,0.38,1.02,0.19,0.47,0.56,0.26,-0.40,-0.52,0.00
23.999,0.04,0.30,0.96,0.19,0.47,0.56,0.26,-0.40,-0.52,0.00
24.0,0.04,0.30,0.96,0.19,0.47,0.56,0.25,-0.32,-0.55,0.00
24.0,0.04,0.30,0.96,0.78,-0.09,0.23,0.25,-0.32,-0.55,0.00
24.035,-0.11,0.23,0.99,0.78,-0.09,0.23,0.25,-0.32,-0.55,0.00
24.035,-0.11,0.23,0.99,0.55,-0.42,-0.49,0.25,-0.32,-0.55,0.00
24.074,-0.11,0.23,0.99,0.55,-0.42,-0.49,0.19,-0.21,-0.68,0.00
24.075,-0.11,0.23,0.99,-0.84,-0.95,0.64,0.19,-0.21,-0.68,0.00
24.114,-0.11,0.23,0.99,0.42,-1.47,0.69,0.19,-0.21,-0.68,0.00
24.114,0.02,0.18,0.92,0.42,-1.47,0.69,0.19,-0.21,-0.68,0.00
24.115,0.02,0.18,0.92,0.42,-1.47,0.69,0.13,-0.15,-0.56,0.00
24.154,0.02,0.18,0.92,0.78,-1.24,-1.08,0.13,-0.15,-0.56,0.00
24.193,0.02,0.18,0.92,0.78,-1.24,-1.08,0.24,-0.35,-0.64,0.00
24.193,-0.00,0.30,0.87,0.78,-1.24,-1.08,0.24,-0.35,-0.64,0.00
24.193,-0.00,0.30,0.87,0.37,-0.25,-0.71,0.24,-0.35,-0.64,0.00
24.232,0.07,0.26,0.89,0.37,-0.25,-0.71,0.24,-0.35,-0.64,0.00
24.232,0.07,0.26,0.89,0.24,-0.70,-0.26,0.24,-0.35,-0.64,0.00
24.271,0.07,0.26,0.89,0.24,-0.70,-0.26,-0.06,-0.07,-0.31,0.00
24.272,0.07,0.26,0.89,1.07,-0.51,-0.47,-0.06,-0.07,-0.31,0.00
24.311,-0.01,0.31,0.90,1.07,-0.51,-0.47,-0.06,-0.07,-0.31,0.00
24.311,-0.01,0.31,0.90,1.07,-0.51,-0.47,-0.31,-0.22,-0.41,0.00
24.311,-0.01,0.31,0.90,0.24,-0.04,-0.42,-0.31,-0.22,-0.41,0.00
24.35,-0.01,0.31,0.90,0.10,0.19,-0.49,-0.31,-0.22,-0.41,0.00
24.39,0.02,0.34,0.84,0.10,0.19,-0.49,-0.31,-0.22,-0.41,0.00
24.391,0.02,0.34,0.84,0.10,0.19,-0.49,-0.19,-0.20,-0.29,0.00
24.391,0.02,0.34,0.84,0.43,0.43,-1.14,-0.19,-0.20,-0.29,0.00
24.43,0.02,0.34,0.84,0.22,0.70,-0.68,-0.19,-0.20,-0.29,0.00
24.43,-0.02,0.37,0.96,0.22,0.70,-0.68,-0.19,-0.20,-0.29,0.00
24.469,-0.02,0.37,0.96,0.22,0.70,-0.68,-0.14,0.03,-0.26,0.00
24.47,-0.02,0.37,0.96,0.05,0.86,0.26,-0.14,0.03,-0.26,0.00
24.509,-0.06,0.44,0.92,0.05,0.86,0.26,-0.14,0.03,-0.26,0.00
24.51,-0.06,0.44,0.92,0.05,0.86,0.26,0.14,-0.02,-0.11,0.00
24.51,-0.06,0.44,0.92,-0.44,1.30,-0.14,0.14,-0.02,-0.11,0.00
24.549,-0.06,0.44,0.92,-0.16,1.42,-0.33,0.14,-0.02,-0.11,0.00
24.588,-0.06,0.44,0.92,-0.16,1.42,-0.33,-0.07,0.12,0.19,0.00
24.589,-0.00,0.38,1.04,-0.16,1.42,-0.33,-0.07,0.12,0.19,0.00
24.589,-0.00,0.38,1.04,0.33,1.01,0.75,-0.07,0.12,0.19,0.00
24.628,-0.03,0.34,1.07,0.33,1.01,0.75,-0.07,0.12,0.19,0.00
24.629,-0.03,0.34,1.07,0.34,0.47,1.30,-0.07,0.12,0.19,0.00
24.667,-0.03,0.34,1.07,0.34,0.47,1.30,0.05,0.05,0.17,0.00
24.668,-0.03,0.34,1.07,0.02,0.34,1.24,0.05,0.05,0.17,0.00
24.706,-0.05,0.40,0.92,0.02,0.34,1.24,0.05,0.05,0.17,0.00
24.707,-0.05,0.40,0.92,0.02,0.34,1.24,0.48,0.10,0.14,0.00
24.707,-0.05,0.40,0.92,0.10,0.45,0.44,0.48,0.10,0.14,0.00
24.746,-0.05,0.40,0.92,-0.16,0.69,-0.38,0.48,0.10,0.14,0.00
24.786,-0.05,0.40,0.92,-0.16,0.69,-0.38,0.19,0.45,0.38,0.00
24.786,-0.06,0.32,0.92,-0.16,0.69,-0.38,0.19,0.45,0.38,0.00
24.787,-0.06,0.32,0.92,-0.11,0.08,-0.18,0.19,0.45,0.38,0.00
24.825,-0.06,0.32,0.92,0.10,-0.82,0.10,0.19,0.45,0.38,0.00
24.865,-0.06,0.32,0.92,0.10,-0.82,0.10,-0.20,0.16,0.41,0.00
24.865,-0.04,0.25,0.97,0.10,-0.82,0.10,-0.20,0.16,0.41,0.00
24.866,-0.04,0.25,0.97,0.21,-0.85,0.36,-0.20,0.16,0.41,0.00
24.905,-0.04,0.25,0.97,0.21,-0.85,0.36,0.13,0.09,0.32,0.00
24.905,-0.12,0.29,0.94,0.21,-0.85,0.36,0.13,0.09,0.32,0.00
24.905,-0.12,0.29,0.94,-0.33,-0.53,0.54,0.13,0.09,0.32,0.00
24.944,-0.12,0.29,0.94,-0.80,-0.50,-0.09,0.13,0.09,0.32,0.00
24.983,-0.05,0.33,0.82,-0.80,-0.50,-0.09,0.13,0.09,0.32,0.00
24.984,-0.05,0.33,0.82,-0.80,-0.50,-0.09,0.06,-0.03,0.47,0.00
24.984,-0.05,0.33,0.82,-0.20,-0.37,-1.01,0.06,-0.03,0.47,0.00
25.023,-0.05,0.33,0.82,0.18,0.17,-1.25,0.06,-0.03,0.47,0.00
25.063,-0.05,0.33,0.82,0.18,0.17,-1.25,-0.30,0.05,0.35,0.00
25.063,-0.03,0.37,0.86,0.18,0.17,-1.25,-0.30,0.05,0.35,0.00
25.064,-0.03,0.37,0.86,0.01,0.49,-0.80,-0.30,0.05,0.35,0.00
25.105,0.03,0.37,0.88,0.01,0.49,-0.80,-0.30,0.05,0.35,0.00
25.105,0.03,0.37,0.88,0.55,0.57,-0.42,-0.30,0.05,0.35,0.00
25.141,0.03,0.37,0.88,0.55,0.57,-0.42,-0.19,0.06,0.32,0.00
25.142,0.03,0.37,0.88,0.63,0.54,-0.54,-0.19,0.06,0.32,0.00
25.181,0.03,0.37,0.88,0.63,0.54,-0.54,0.07,-0.05,0.11,0.00
25.182,-0.03,0.43,0.89,0.63,0.54,-0.54,0.07,-0.05,0.11,0.00
25.182,-0.03,0.43,0.89,-0.11,0.95,-0.44,0.07,-0.05,0.11,0.00
25.222,-0.03,0.43,0.89,0.14,1.04,-0.38,0.07,-0.05,0.11,0.00
25.261,-0.03,0.43,0.89,0.14,1.04,-0.38,0.14,-0.11,0.01,0.00
25.262,0.00,0.43,0.94,0.14,1.04,-0.38,0.14,-0.11,0.01,0.00
25.262,0.00,0.43,0.94,0.27,0.93,-0.03,0.14,-0.11,0.01,0.00
25.302,-0.06,0.42,1.11,0.27,0.93,-0.03,0.14,-0.11,0.01,0.00
25.303,-0.06,0.42,1.11,-0.10,0.84,1.04,0.14,-0.11,0.01,0.00
25.34,-0.06,0.42,1.11,-0.10,0.84,1.04,0.16,-0.04,-0.14,0.00
25.341,-0.06,0.42,1.11,-0.38,0.58,1.91,0.16,-0.04,-0.14,0.00
25.379,-0.06,0.42,1.11,-0.38,0.58,1.91,0.28,-0.29,-0.21,0.00
25.38,0.03,0.41,1.00,-0.38,0.58,1.91,0.28,-0.29,-0.21,0.00
25.38,0.03,0.41,1.00,-0.12,0.61,1.47,0.28,-0.29,-0.21,0.00
25.421,0.03,0.41,1.00,0.79,0.26,-0.02,0.28,-0.29,-0.21,0.00
25.458,0.03,0.41,1.00,0.79,0.26,-0.02,0.14,-0.08,-0.26,0.00
25.459,0.03,0.41,1.00,0.41,-0.39,0.16,0.14,-0.08,-0.26,0.00
25.46,0.02,0.31,0.95,0.41,-0.39,0.16,0.14,-0.08,-0.26,0.00
25.498,0.06,0.26,0.91,0.41,-0.39,0.16,0.14,-0.08,-0.26,0.00
25.498,0.06,0.26,0.91,-0.13,-1.40,0.67,0.14,-0.08,-0.26,0.00
25.537,0.06,0.26,0.91,-0.13,-1.40,0.67,-0.01,-0.11,-0.38,0.00
25.538,0.06,0.26,0.91,0.73,-1.12,-0.25,-0.01,-0.11,-0.38,0.00
25.577,0.04,0.29,0.87,0.73,-1.12,-0.25,-0.01,-0.11,-0.38,0.00
25.578,0.04,0.29,0.87,0.73,-1.12,-0.25,0.21,-0.06,-0.43,0.00
25.578,0.04,0.29,0.87,0.48,-0.83,-0.33,0.21,-0.06,-0.43,0.00
25.616,0.04,0.29,0.87,0.56,-0.86,-0.57,0.21,-0.06,-0.43,0.00
25.656,0.04,0.31,0.84,0.56,-0.86,-0.57,0.21,-0.06,-0.43,0.00
25.657,0.04,0.31,0.84,0.56,-0.86,-0.57,-0.09,-0.14,-0.37,0.00
25.657,0.04,0.31,0.84,0.52,-0.64,-1.02,-0.09,-0.14,-0.37,0.00
25.696,-0.01,0.34,0.98,0.52,-0.64,-1.02,-0.09,-0.14,-0.37,0.00
25.697,-0.01,0.34,0.98,0.59,-0.38,-0.29,-0.09,-0.14,-0.37,0.00
25.735,-0.01,0.34,0.98,0.59,-0.38,-0.29,-0.31,0.10,-0.40,0.00
25.736,-0.01,0.34,0.98,0.19,-0.10,0.58,-0.31,0.10,-0.40,0.00
25.774,-0.01,0.34,0.98,0.19,-0.10,0.58,0.04,-0.12,-0.42,0.00
25.775,-0.01,0.34,0.98,0.21,0.06,-0.09,0.04,-0.12,-0.42,0.00
25.775,-0.01,0.38,0.88,0.21,0.06,-0.09,0.04,-0.12,-0.42,0.00
25.814,-0.01,0.38,0.88,0.24,0.28,-0.69,0.04,-0.12,-0.42,0.00
25.854,-0.01,0.38,0.88,0.24,0.28,-0.69,0.22,0.00,-0.37,0.00
25.855,0.02,0.43,0.86,0.24,0.28,-0.69,0.22,0.00,-0.37,0.00
25.855,0.02,0.43,0.86,0.65,0.34,-0.75,0.22,0.00,-0.37,0.00
25.894,0.02,0.43,0.86,0.36,0.85,-0.21,0.22,0.00,-0.37,0.00
25.933,-0.04,0.47,0.91,0.36,0.85,-0.21,0.22,0.00,-0.37,0.00
25.933,-0.04,0.47,0.91,0.36,0.85,-0.21,0.27,0.10,-0.28,0.00
25.934,-0.04,0.47,0.91,0.11,0.82,-0.06,0.27,0.10,-0.28,0.00
25.973,-0.04,0.47,0.91,0.11,0.82,-0.06,-0.05,0.06,-0.22,0.00
25.973,-0.05,0.39,1.02,0.11,0.82,-0.06,-0.05,0.06,-0.22,0.00
25.974,-0.05,0.39,1.02,0.35,0.36,0.57,-0.05,0.06,-0.22,0.00
26.011,-0.05,0.39,1.02,0.02,-0.16,1.30,-0.05,0.06,-0.22,0.00
26.052,-0.05,0.39,1.02,0.02,-0.16,1.30,0.20,-0.00,-0.30,0.00
26.053,-0.03,0.39,0.97,0.02,-0.16,1.30,0.20,-0.00,-0.30,0.00
26.053,-0.03,0.39,0.97,0.59,-0.22,0.67,0.20,-0.00,-0.30,0.00
26.092,-0.03,0.39,0.97,0.15,0.03,0.40,0.20,-0.00,-0.30,0.00
26.13,-0.03,0.39,0.97,0.15,0.03,0.40,0.09,0.22,-0.25,0.00
26.131,-0.03,0.39,0.97,0.24,-0.39,0.27,0.09,0.22,-0.25,0.00
26.131,-0.06,0.35,0.94,0.24,-0.39,0.27,0.09,0.22,-0.25,0.00
26.17,-0.02,0.26,0.95,0.24,-0.39,0.27,0.09,0.22,-0.25,0.00
26.171,-0.02,0.26,0.95,0.49,-0.88,0.02,0.09,0.22,-0.25,0.00
26.21,-0.02,0.26,0.95,0.49,-0.88,0.02,-0.38,-0.05,-0.21,0.00
26.21,-0.02,0.26,0.95,0.71,-1.08,0.35,-0.38,-0.05,-0.21,0.00
26.25,-0.02,0.26,0.95,0.71,-1.08,0.35,-0.18,-0.06,-0.49,0.00
26.251,-0.02,0.26,0.95,0.53,-1.03,1.03,-0.18,-0.06,-0.49,0.00
26.251,-0.09,0.27,0.99,0.53,-1.03,1.03,-0.18,-0.06,-0.49,0.00
26.289,-0.09,0.27,0.99,-0.62,-0.66,0.25,-0.18,-0.06,-0.49,0.00
26.328,-0.09,0.27,0.99,-0.62,-0.66,0.25,0.26,-0.30,-0.55,0.00
26.329,-0.18,0.35,0.78,-0.62,-0.66,0.25,0.26,-0.30,-0.55,0.00
26.329,-0.18,0.35,0.78,-0.98,-0.17,-1.29,0.26,-0.30,-0.55,0.00
26.368,-0.03,0.27,0.87,-0.98,-0.17,-1.29,0.26,-0.30,-0.55,0.00
26.369,-0.03,0.27,0.87,-0.01,-0.20,-1.67,0.26,-0.30,-0.55,0.00
26.412,-0.03,0.27,0.87,0.70,-0.70,-0.38,0.26,-0.30,-0.55,0.00
26.413,-0.03,0.27,0.87,0.70,-0.70,-0.38,-0.34,-0.12,-0.23,0.00
26.447,-0.03,0.27,0.87,0.70,-0.70,-0.38,-0.68,-0.07,-0.56,0.00
26.448,-0.03,0.27,0.87,0.25,-0.78,0.76,-0.68,-0.07,-0.56,0.00
26.448,-0.13,0.23,1.01,0.25,-0.78,0.76,-0.68,-0.07,-0.56,0.00
26.486,-0.13,0.23,1.01,-0.84,-0.40,0.66,-0.68,-0.07,-0.56,0.00
26.526,-0.13,0.23,1.01,-0.84,-0.40,0.66,-0.04,-0.30,-0.53,0.00
26.527,-0.17,0.31,0.92,-0.84,-0.40,0.66,-0.04,-0.30,-0.53,0.00
26.527,-0.17,0.31,0.92,-0.87,0.15,-0.14,-0.04,-0.30,-0.53,0.00
26.566,-0.17,0.31,0.92,-0.73,0.53,-0.61,-0.04,-0.30,-0.53,0.00
26.567,-0.18,0.33,0.89,-0.73,0.53,-0.61,-0.04,-0.30,-0.53,0.00
26.607,-0.18,0.33,0.89,-0.73,0.53,-0.61,-0.05,-0.28,-0.33,0.00
26.608,-0.18,0.33,0.89,-0.96,0.45,-0.53,-0.05,-0.28,-0.33,0.00
26.645,-0.18,0.33,0.89,-0.96,0.45,-0.53,-0.32,-0.07,-0.13,0.00
26.645,-0.18,0.33,0.89,-0.93,0.21,0.33,-0.32,-0.07,-0.13,0.00
26.646,-0.17,0.28,1.02,-0.93,0.21,0.33,-0.32,-0.07,-0.13,0.00
26.685,-0.17,0.28,1.02,-0.79,0.12,0.91,-0.32,-0.07,-0.13,0.00
26.724,-0.17,0.28,1.02,-0.79,0.12,0.91,-0.09,-0.26,-0.25,0.00
26.724,-0.17,0.30,0.94,-0.79,0.12,0.91,-0.09,-0.26,-0.25,0.00
26.725,-0.17,0.30,0.94,-1.07,0.24,-0.04,-0.09,-0.26,-0.25,0.00
26.763,-0.15,0.32,0.98,-1.07,0.24,-0.04,-0.09,-0.26,-0.25,0.00
26.764,-0.15,0.32,0.98,-0.65,0.60,-0.51,-0.09,-0.26,-0.25,0.00
26.804,-0.15,0.32,0.98,-0.65,0.60,-0.51,0.13,-0.07,-0.15,0.00
26.804,-0.15,0.32,0.98,-0.82,0.50,0.30,0.13,-0.07,-0.15,0.00
26.843,-0.15,0.32,0.98,-0.82,0.50,0.30,0.14,-0.30,-0.06,0.00
26.844,-0.17,0.34,0.95,-0.82,0.50,0.30,0.14,-0.30,-0.06,0.00
26.844,-0.17,0.34,0.95,-1.28,0.56,0.20,0.14,-0.30,-0.06,0.00
26.882,-0.17,0.34,0.95,-1.00,0.50,-0.07,0.14,-0.30,-0.06,0.00
26.922,-0.17,0.34,0.95,-1.00,0.50,-0.07,0.22,-0.14,0.14,0.00
26.923,-0.08,0.32,0.94,-1.00,0.50,-0.07,0.22,-0.14,0.14,0.00
26.923,-0.08,0.32,0.94,-0.59,0.09,-0.17,0.22,-0.14,0.14,0.00
26.961,-0.12,0.31,1.06,-0.59,0.09,-0.17,0.22,-0.14,0.14,0.00
26.962,-0.12,0.31,1.06,0.35,0.34,0.17,0.22,-0.14,0.14,0.00
27.001,-0.12,0.31,1.06,0.35,0.34,0.17,0.19,0.08,0.03,0.00
27.001,-0.12,0.31,1.06,-0.62,-0.01,1.13,0.19,0.08,0.03,0.00
27.04,-0.12,0.31,1.06,-0.62,-0.01,1.13,0.38,0.11,0.05,0.00
27.041,-0.12,0.29,1.00,-0.62,-0.01,1.13,0.38,0.11,0.05,0.00
27.041,-0.12,0.29,1.00,-0.13,-0.48,0.44,0.38,0.11,0.05,0.00
27.08,-0.12,0.29,1.00,-0.59,-0.40,0.64,0.38,0.11,0.05,0.00
27.119,-0.12,0.29,1.00,-0.59,-0.40,0.64,0.38,0.11,0.22,0.00
27.12,-0.09,0.32,0.92,-0.59,-0.40,0.64,0.38,0.11,0.22,0.00
27.12,-0.09,0.32,0.92,-0.53,-0.29,0.35,0.38,0.11,0.22,0.00
27.159,-0.09,0.32,0.92,0.40,-0.48,-0.80,0.38,0.11,0.22,0.00
27.199,-0.09,0.32,0.92,0.40,-0.48,-0.80,0.23,0.00,0.41,0.00
27.2,-0.02,0.38,0.89,0.40,-0.48,-0.80,0.23,0.00,0.41,0.00
27.2,-0.02,0.38,0.89,0.41,0.10,-0.37,0.23,0.00,0.41,0.00
27.238,-0.02,0.38,0.89,0.41,0.10,-0.37,-0.11,0.20,0.78,0.00
27.238,-0.04,0.29,0.97,0.41,0.10,-0.37,-0.11,0.20,0.78,0.00
27.238,-0.04,0.29,0.97,-0.10,-0.53,0.16,-0.11,0.20,0.78,0.00
27.278,-0.04,0.29,0.97,0.26,-0.73,0.57,-0.11,0.20,0.78,0.00
27.317,-0.04,0.29,0.97,0.26,-0.73,0.57,-0.20,0.11,0.74,0.00
27.317,-0.05,0.28,0.98,0.26,-0.73,0.57,-0.20,0.11,0.74,0.00
27.318,-0.05,0.28,0.98,0.03,-0.79,0.87,-0.20,0.11,0.74,0.00
27.356,-0.05,0.28,0.98,-0.29,-0.66,-0.08,-0.20,0.11,0.74,0.00
27.396,-0.05,0.28,0.98,-0.29,-0.66,-0.08,0.15,0.03,0.69,0.00
27.397,-0.04,0.33,0.86,-0.29,-0.66,-0.08,0.15,0.03,0.69,0.00
27.397,-0.04,0.33,0.86,-0.05,-0.32,-0.66,0.15,0.03,0.69,0.00
27.435,-0.04,0.33,0.86,-0.29,-0.18,-0.72,0.15,0.03,0.69,0.00
27.436,-0.04,0.38,0.86,-0.29,-0.18,-0.72,0.15,0.03,0.69,0.00
27.475,-0.04,0.38,0.86,-0.29,-0.18,-0.72,0.05,0.13,0.69,0.00
27.476,-0.04,0.38,0.86,-0.17,0.27,-0.57,0.05,0.13,0.69,0.00
27.515,0.03,0.40,0.95,-0.17,0.27,-0.57,0.05,0.13,0.69,0.00
27.515,0.03,0.40,0.95,0.38,0.48,0.21,0.05,0.13,0.69,0.00
27.515,0.03,0.40,0.95,0.38,0.48,0.21,-0.19,0.21,0.73,0.00
27.554,0.03,0.40,0.95,0.55,0.46,0.26,-0.19,0.21,0.73,0.00
27.594,0.02,0.43,0.89,0.55,0.46,0.26,-0.19,0.21,0.73,0.00
27.595,0.02,0.43,0.89,0.55,0.46,0.26,0.12,0.24,0.69,0.00
27.595,0.02,0.43,0.89,0.28,0.65,-0.32,0.12,0.24,0.69,0.00
27.633,0.08,0.41,0.89,0.28,0.65,-0.32,0.12,0.24,0.69,0.00
27.634,0.08,0.41,0.89,0.38,0.32,-0.44,0.12,0.24,0.69,0.00
27.673,0.08,0.41,0.89,0.38,0.32,-0.44,0.18,0.27,0.76,0.00
27.674,0.08,0.41,0.89,0.90,0.32,-0.23,0.18,0.27,0.76,0.00
27.716,0.08,0.41,0.89,0.90,0.32,-0.23,0.10,0.14,0.58,0.00
27.717,0.10,0.45,0.91,0.90,0.32,-0.23,0.10,0.14,0.58,0.00
27.717,0.10,0.45,0.91,1.08,0.55,-0.20,0.10,0.14,0.58,0.00
27.752,0.10,0.45,0.91,0.90,0.62,0.00,0.10,0.14,0.58,0.00
27.792,0.10,0.45,0.91,0.90,0.62,0.00,0.10,0.21,0.37,0.00
27.793,0.10,0.45,0.91,0.84,0.72,0.10,0.10,0.21,0.37,0.00
27.793,0.09,0.47,0.94,0.84,0.72,0.10,0.10,0.21,0.37,0.00
27.832,0.09,0.47,0.94,0.99,0.89,0.71,0.10,0.21,0.37,0.00
27.832,0.04,0.44,1.03,0.99,0.89,0.71,0.10,0.21,0.37,0.00
27.871,0.04,0.44,1.03,0.99,0.89,0.71,0.04,0.26,0.25,0.00
27.872,0.04,0.44,1.03,0.44,0.30,1.19,0.04,0.26,0.25,0.00
27.91,0.08,0.39,0.82,0.44,0.30,1.19,0.04,0.26,0.25,0.00
27.911,0.08,0.39,0.82,0.44,0.30,1.19,0.20,0.15,0.27,0.00
27.911,0.08,0.39,0.82,0.83,0.15,-0.40,0.20,0.15,0.27,0.00
27.949,0.08,0.39,0.82,0.89,-0.39,-1.22,0.20,0.15,0.27,0.00
27.99,0.08,0.39,0.82,0.89,-0.39,-1.22,-0.32,0.12,0.16,0.00
27.99,0.05,0.27,0.96,0.89,-0.39,-1.22,-0.32,0.12,0.16,0.00
27.991,0.05,0.27,0.96,0.73,-1.08,0.13,-0.32,0.12,0.16,0.00
28.029,0.05,0.27,0.96,0.31,-1.29,0.95,-0.32,0.12,0.16,0.00
28.029,-0.01,0.28,0.94,0.31,-1.29,0.95,-0.32,0.12,0.16,0.00
28.069,-0.01,0.28,0.94,0.31,-1.29,0.95,0.08,-0.07,-0.13,0.00
28.069,-0.01,0.28,0.94,0.01,-1.12,0.23,0.08,-0.07,-0.13,0.00
28.114,-0.01,0.28,0.94,0.01,-1.12,0.23,0.45,-0.03,-0.18,0.00
28.114,-0.05,0.37,0.84,0.01,-1.12,0.23,0.45,-0.03,-0.18,0.00
28.114,-0.05,0.37,0.84,0.01,-0.37,-0.29,0.45,-0.03,-0.18,0.00
28.147,-0.05,0.37,0.84,-0.55,-0.42,-0.83,0.45,-0.03,-0.18,0.00
28.187,-0.05,0.37,0.84,-0.55,-0.42,-0.83,-0.16,0.05,-0.04,0.00
28.188,-0.05,0.37,0.84,0.08,-0.61,0.43,-0.16,0.05,-0.04,0.00
28.188,-0.00,0.34,0.98,0.08,-0.61,0.43,-0.16,0.05,-0.04,0.00
28.226,-0.00,0.34,0.98,0.20,-0.63,1.22,-0.16,0.05,-0.04,0.00
28.266,-0.02,0.34,0.92,0.20,-0.63,1.22,-0.16,0.05,-0.04,0.00
28.267,-0.02,0.34,0.92,0.20,-0.63,1.22,-0.27,-0.21,-0.27,0.00
28.267,-0.02,0.34,0.92,-0.19,-0.44,0.07,-0.27,-0.21,-0.27,0.00
28.305,-0.02,0.34,0.92,-0.19,-0.44,0.07,0.04,-0.32,-0.57,0.00
28.306,0.08,0.36,0.84,-0.19,-0.44,0.07,0.04,-0.32,-0.57,0.00
28.307,0.08,0.36,0.84,0.50,-0.40,-0.81,0.04,-0.32,-0.57,0.00
28.345,0.08,0.36,0.84,0.96,-0.22,-0.67,0.04,-0.32,-0.57,0.00
28.384,0.00,0.40,0.91,0.96,-0.22,-0.67,0.04,-0.32,-0.57,0.00
28.385,0.00,0.40,0.91,0.10,0.05,-0.14,0.04,-0.32,-0.57,0.00
28.386,0.00,0.40,0.91,0.10,0.05,-0.14,0.08,-0.28,-1.14,0.00
28.424,0.00,0.40,0.91,0.35,-0.06,0.31,0.08,-0.28,-1.14,0.00
28.463,0.00,0.40,0.91,0.35,-0.06,0.31,0.22,-0.19,-1.25,0.00
28.464,0.00,0.40,0.91,0.48,-0.42,0.67,0.22,-0.19,-1.25,0.00
28.464,0.01,0.36,0.98,0.48,-0.42,0.67,0.22,-0.19,-1.25,0.00
28.503,0.01,0.33,1.03,0.48,-0.42,0.67,0.22,-0.19,-1.25,0.00
28.504,0.01,0.33,1.03,0.53,-0.55,0.81,0.22,-0.19,-1.25,0.00
28.543,0.01,0.33,1.03,0.53,-0.55,0.81,0.06,-0.46,-1.43,0.00
28.543,0.01,0.33,1.03,0.52,-0.74,1.33,0.06,-0.46,-1.43,0.00
28.582,0.01,0.33,1.03,0.52,-0.74,1.33,-0.08,-0.48,-1.52,0.00
28.583,0.03,0.26,1.00,0.52,-0.74,1.33,-0.08,-0.48,-1.52,0.00
28.583,0.03,0.26,1.00,0.71,-1.12,1.23,-0.08,-0.48,-1.52,0.00
28.622,0.03,0.26,1.00,0.88,-1.39,0.42,-0.08,-0.48,-1.52,0.00
28.661,0.03,0.26,1.00,0.88,-1.39,0.42,0.04,-0.69,-1.71,0.00
28.662,0.09,0.25,0.79,0.88,-1.39,0.42,0.04,-0.69,-1.71,0.00
28.662,0.09,0.25,0.79,1.40,-1.35,-1.17,0.04,-0.69,-1.71,0.00
28.701,0.02,0.26,0.92,1.40,-1.35,-1.17,0.04,-0.69,-1.71,0.00
28.702,0.02,0.26,0.92,1.42,-0.94,-1.54,0.04,-0.69,-1.71,0.00
28.74,0.02,0.26,0.92,1.42,-0.94,-1.54,-0.15,-0.56,-1.88,0.00
28.74,0.02,0.26,0.92,0.65,-0.98,0.30,-0.15,-0.56,-1.88,0.00
28.78,0.02,0.26,0.92,0.65,-0.98,0.30,-0.19,-0.64,-1.85,0.00
28.781,0.05,0.23,0.98,0.65,-0.98,0.30,-0.19,-0.64,-1.85,0.00
28.781,0.05,0.23,0.98,0.98,-1.09,0.52,-0.19,-0.64,-1.85,0.00
28.819,0.05,0.23,0.98,1.32,-0.93,0.39,-0.19,-0.64,-1.85,0.00
28.859,0.05,0.23,0.98,0.74,-0.86,1.06,-0.19,-0.64,-1.85,0.00
28.86,0.05,0.23,0.98,0.74,-0.86,1.06,-0.03,-0.51,-1.85,0.00
28.86,0.03,0.24,1.03,0.74,-0.86,1.06,-0.03,-0.51,-1.85,0.00
28.899,0.07,0.27,1.02,0.74,-0.86,1.06,-0.03,-0.51,-1.85,0.00
28.899,0.07,0.27,1.02,1.77,-0.72,0.37,-0.03,-0.51,-1.85,0.00
28.938,0.07,0.27,1.02,1.77,-0.72,0.37,-0.05,-0.66,-1.79,0.00
28.939,0.07,0.27,1.02,1.24,-0.35,0.78,-0.05,-0.66,-1.79,0.00
28.978,0.07,0.27,1.02,1.24,-0.35,0.78,-0.18,-0.50,-1.67,0.00
28.979,0.08,0.20,1.06,1.24,-0.35,0.78,-0.18,-0.50,-1.67,0.00
28.98,0.08,0.20,1.06,0.96,-0.81,1.34,-0.18,-0.50,-1.67,0.00
29.02,0.08,0.20,1.06,1.69,-1.01,0.94,-0.18,-0.50,-1.67,0.00
29.057,0.08,0.20,1.06,1.69,-1.01,0.94,0.10,-0.56,-1.80,0.00
29.057,0.05,0.22,1.00,1.69,-1.01,0.94,0.10,-0.56,-1.80,0.00
29.058,0.05,0.22,1.00,1.24,-0.78,0.59,0.10,-0.56,-1.80,0.00
29.097,0.01,0.28,0.92,1.24,-0.78,0.59,0.10,-0.56,-1.80,0.00
29.097,0.01,0.28,0.92,0.77,-0.41,0.04,0.10,-0.56,-1.80,0.00
29.136,0.01,0.28,0.92,0.77,-0.41,0.04,0.27,-0.52,-1.71,0.00
29.136,0.01,0.28,0.92,0.68,-0.17,-0.31,0.27,-0.52,-1.71,0.00
29.176,0.01,0.28,0.92,0.68,-0.17,-0.31,-0.00,-0.43,-1.49,0.00
29.177,0.01,0.28,0.92,0.44,-0.31,0.37,-0.00,-0.43,-1.49,0.00
29.178,0.02,0.24,0.98,0.44,-0.31,0.37,-0.00,-0.43,-1.49,0.00
29.215,0.02,0.24,0.98,0.97,-0.58,0.18,-0.00,-0.43,-1.49,0.00
29.255,0.02,0.24,0.98,1.09,-0.67,-0.16,-0.00,-0.43,-1.49,0.00
29.256,0.02,0.24,0.98,1.09,-0.67,-0.16,-0.01,-0.66,-1.51,0.00
29.256,0.08,0.21,0.95,1.09,-0.67,-0.16,-0.01,-0.66,-1.51,0.00
29.294,0.08,0.21,0.95,1.12,-0.81,0.20,-0.01,-0.66,-1.51,0.00
29.333,0.08,0.21,0.95,1.12,-0.81,0.20,0.15,-0.93,-1.80,0.00
29.334,-0.06,0.27,0.97,1.12,-0.81,0.20,0.15,-0.93,-1.80,0.00
29.334,-0.06,0.27,0.97,-0.50,-0.18,0.21,0.15,-0.93,-1.80,0.00
29.373,-0.06,0.27,0.97,-0.50,-0.18,0.21,-0.04,-0.71,-1.24,0.00
29.374,-0.06,0.27,0.97,-0.62,-0.36,-0.04,-0.04,-0.71,-1.24,0.00
29.374,0.02,0.22,0.94,-0.62,-0.36,-0.04,-0.04,-0.71,-1.24,0.00
29.417,0.02,0.22,0.94,0.28,-0.77,-0.08,-0.04,-0.71,-1.24,0.00
29.453,0.02,0.22,0.94,0.28,-0.77,-0.08,-0.13,-1.06,-1.41,0.00
29.454,0.02,0.22,0.94,-1.14,-0.29,-0.05,-0.13,-1.06,-1.41,0.00
29.454,-0.08,0.23,0.97,-1.14,-0.29,-0.05,-0.13,-1.06,-1.41,0.00
29.492,-0.08,0.23,0.97,-1.44,-0.78,0.55,-0.13,-1.06,-1.41,0.00
29.533,-0.08,0.23,0.97,-1.44,-0.78,0.55,-0.22,-0.78,-1.11,0.00
29.534,-0.08,0.23,0.97,-0.95,-0.72,0.53,-0.22,-0.78,-1.11,0.00
29.534,-0.02,0.19,1.00,-0.95,-0.72,0.53,-0.22,-0.78,-1.11,0.00
29.571,-0.05,0.14,0.96,-0.95,-0.72,0.53,-0.22,-0.78,-1.11,0.00
29.572,-0.05,0.14,0.96,-0.95,-0.72,0.53,-0.14,-0.37,-1.10,0.00
29.572,-0.05,0.14,0.96,-0.96,-1.10,-0.26,-0.14,-0.37,-1.10,0.00
29.611,-0.05,0.14,0.96,-1.26,-1.07,0.09,-0.14,-0.37,-1.10,0.00
29.651,-0.05,0.14,0.96,-1.26,-1.07,0.09,-0.40,-0.56,-1.28,0.00
29.652,-0.03,0.13,0.98,-1.26,-1.07,0.09,-0.40,-0.56,-1.28,0.00
29.652,-0.03,0.13,0.98,-1.14,-1.28,0.11,-0.40,-0.56,-1.28,0.00
29.689,-0.03,0.13,0.98,-1.12,-0.68,0.24,-0.40,-0.56,-1.28,0.00
29.729,-0.03,0.13,0.98,-0.54,-0.80,-1.09,-0.40,-0.56,-1.28,0.00
29.73,0.00,0.14,0.87,-0.54,-0.80,-1.09,-0.40,-0.56,-1.28,0.00
29.73,0.00,0.14,0.87,-0.54,-0.80,-1.09,-0.25,0.03,-1.23,0.00
29.769,0.02,0.16,1.03,-0.54,-0.80,-1.09,-0.25,0.03,-1.23,0.00
29.77,0.02,0.16,1.03,0.30,-0.72,0.73,-0.25,0.03,-1.23,0.00
29.808,0.02,0.16,1.03,0.30,-0.72,0.73,-0.17,0.53,-1.37,0.00
29.809,0.02,0.16,1.03,0.40,-0.63,0.61,-0.17,0.53,-1.37,0.00
29.848,0.02,0.16,1.03,-0.62,-0.57,-1.99,-0.17,0.53,-1.37,0.00
29.848,0.02,0.16,1.03,-0.62,-0.57,-1.99,0.25,0.83,-1.73,0.00
29.848,-0.18,0.20,0.85,-0.62,-0.57,-1.99,0.25,0.83,-1.73,0.00
29.888,-0.18,0.20,0.85,-1.22,0.08,-0.01,0.25,0.83,-1.73,0.00
29.927,-0.18,0.20,0.85,-1.25,0.26,0.59,0.25,0.83,-1.73,0.00
29.927,-0.29,0.24,1.02,-1.25,0.26,0.59,0.25,0.83,-1.73,0.00
29.928,-0.29,0.24,1.02,-1.25,0.26,0.59,-0.05,0.50,-1.51,0.00
29.966,-0.29,0.24,1.02,-1.64,0.15,0.80,-0.05,0.50,-1.51,0.00
29.967,-0.42,0.29,1.04,-1.64,0.15,0.80,-0.05,0.50,-1.51,0.00
30.006,-0.42,0.29,1.04,-1.64,0.15,0.80,0.49,0.76,-1.06,0.00
30.007,-0.42,0.29,1.04,-2.17,0.47,1.04,0.49,0.76,-1.06,0.00
30.045,-0.42,0.29,1.04,-2.17,0.47,1.04,0.63,0.04,-0.65,0.00
30.046,-0.42,0.29,1.04,0.20,0.54,-0.63,0.63,0.04,-0.65,0.00
30.046,-0.21,0.32,0.92,0.20,0.54,-0.63,0.63,0.04,-0.65,0.00
30.085,-0.21,0.32,0.92,0.07,0.43,0.36,0.63,0.04,-0.65,0.00
30.126,-0.21,0.32,0.92,0.07,0.43,0.36,0.73,0.31,-0.85,0.00
30.126,-0.29,0.38,0.96,0.07,0.43,0.36,0.73,0.31,-0.85,0.00
30.126,-0.29,0.38,0.96,-0.11,0.65,0.47,0.73,0.31,-0.85,0.00
30.164,-0.29,0.38,0.96,-0.88,0.80,0.63,0.73,0.31,-0.85,0.00
30.165,-0.31,0.39,0.86,-0.88,0.80,0.63,0.73,0.31,-0.85,0.00
30.203,-0.31,0.39,0.86,-0.88,0.80,0.63,0.42,0.02,-0.87,0.00
30.204,-0.31,0.39,0.86,-0.26,0.71,-0.55,0.42,0.02,-0.87,0.00
30.243,-0.43,0.40,0.90,-0.26,0.71,-0.55,0.42,0.02,-0.87,0.00
30.244,-0.43,0.40,0.90,-0.26,0.71,-0.55,0.21,0.46,-0.80,0.00
30.244,-0.43,0.40,0.90,-1.16,0.64,1.18,0.21,0.46,-0.80,0.00
30.283,-0.43,0.40,0.90,-0.95,0.94,-0.69,0.21,0.46,-0.80,0.00
30.324,-0.31,0.32,0.87,-0.95,0.94,-0.69,0.21,0.46,-0.80,0.00
30.324,-0.31,0.32,0.87,-0.95,0.94,-0.69,0.59,-0.24,-0.26,0.00
30.325,-0.31,0.32,0.87,-0.70,-0.60,0.99,0.59,-0.24,-0.26,0.00
30.362,-0.31,0.32,0.87,0.33,0.32,-3.11,0.59,-0.24,-0.26,0.00
30.363,-0.17,0.30,1.82,0.33,0.32,-3.11,0.59,-0.24,-0.26,0.00
30.402,-0.17,0.30,1.82,-0.79,-0.69,8.93,0.59,-0.24,-0.26,0.00
30.403,-0.17,0.30,1.82,-0.79,-0.69,8.93,0.66,-3.41,-0.38,0.00
30.44,-0.17,0.30,1.82,-0.79,-0.69,8.93,0.01,0.19,-0.16,0.00
30.441,-0.07,0.22,1.10,-0.79,-0.69,8.93,0.01,0.19,-0.16,0.00
30.441,-0.07,0.22,1.10,0.26,-2.67,0.79,0.01,0.19,-0.16,0.00
30.48,-0.07,0.22,1.10,0.58,-1.04,2.11,0.01,0.19,-0.16,0.00
30.524,-0.07,0.22,1.10,0.58,-1.04,2.11,0.82,0.20,-0.29,0.00
30.525,-0.14,0.36,0.64,0.58,-1.04,2.11,0.82,0.20,-0.29,0.00
30.525,-0.14,0.36,0.64,0.48,-0.62,-2.24,0.82,0.20,-0.29,0.00
30.559,-0.14,0.36,0.64,-1.38,-0.40,-3.31,0.82,0.20,-0.29,0.00
30.599,-0.14,0.36,0.64,-1.38,-0.40,-3.31,-0.57,-1.06,-0.18,0.00
30.6,0.21,0.36,1.05,-1.38,-0.40,-3.31,-0.57,-1.06,-0.18,0.00
30.6,0.21,0.36,1.05,2.58,0.12,0.96,-0.57,-1.06,-0.18,0.00
30.638,0.21,0.36,1.05,2.18,-0.23,4.05,-0.57,-1.06,-0.18,0.00
30.639,-0.05,0.27,1.07,2.18,-0.23,4.05,-0.57,-1.06,-0.18,0.00
30.639,-0.05,0.27,1.07,2.18,-0.23,4.05,-1.09,0.54,-0.63,0.00
30.679,-0.05,0.27,1.07,-0.08,-0.45,-0.03,-1.09,0.54,-0.63,0.00
30.722,-0.05,0.27,1.07,-0.08,-0.45,-0.03,0.17,0.34,-0.38,0.00
30.723,-0.16,0.34,0.86,-0.08,-0.45,-0.03,0.17,0.34,-0.38,0.00
30.723,-0.16,0.34,0.86,-1.03,-0.24,-1.21,0.17,0.34,-0.38,0.00
30.757,-0.16,0.34,0.86,0.76,0.70,-0.43,0.17,0.34,-0.38,0.00
30.796,-0.16,0.34,0.86,0.76,0.70,-0.43,0.38,-0.08,-0.14,0.00
30.797,-0.07,0.43,0.85,0.76,0.70,-0.43,0.38,-0.08,-0.14,0.00
30.797,-0.07,0.43,0.85,0.63,0.84,-0.76,0.38,-0.08,-0.14,0.00
30.836,-0.13,0.41,0.82,0.63,0.84,-0.76,0.38,-0.08,-0.14,0.00
30.836,-0.13,0.41,0.82,-0.25,0.44,-1.27,0.38,-0.08,-0.14,0.00
30.875,-0.13,0.41,0.82,-0.25,0.44,-1.27,0.21,0.13,-0.11,0.00
30.876,-0.13,0.41,0.82,0.21,0.58,-1.06,0.21,0.13,-0.11,0.00
30.915,-0.15,0.41,0.80,0.21,0.58,-1.06,0.21,0.13,-0.11,0.00
30.915,-0.15,0.41,0.80,0.21,0.58,-1.06,0.12,0.11,0.01,0.00
30.915,-0.15,0.41,0.80,0.11,0.47,-1.26,0.12,0.11,0.01,0.00
30.955,-0.15,0.41,0.80,-0.43,0.31,-1.16,0.12,0.11,0.01,0.00
30.994,-0.15,0.41,0.80,-0.43,0.31,-1.16,0.05,-0.33,0.10,0.00
30.995,-0.13,0.38,1.01,-0.43,0.31,-1.16,0.05,-0.33,0.10,0.00
30.995,-0.13,0.38,1.01,-0.18,0.19,0.67,0.05,-0.33,0.10,0.00
31.033,-0.15,0.35,0.96,-0.18,0.19,0.67,0.05,-0.33,0.10,0.00
31.034,-0.15,0.35,0.96,-0.29,-0.19,1.60,0.05,-0.33,0.10,0.00
31.073,-0.15,0.35,0.96,-0.29,-0.19,1.60,0.18,-0.06,0.20,0.00
31.073,-0.15,0.35,0.96,-0.41,-0.31,0.17,0.18,-0.06,0.20,0.00
31.113,-0.15,0.35,0.96,-0.41,-0.31,0.17,0.10,0.18,0.29,0.00
31.113,-0.14,0.36,0.92,-0.41,-0.31,0.17,0.10,0.18,0.29,0.00
31.113,-0.14,0.36,0.92,-0.24,0.05,0.08,0.10,0.18,0.29,0.00
31.152,-0.14,0.36,0.92,-0.20,-0.53,0.02,0.10,0.18,0.29,0.00
31.192,-0.14,0.36,0.92,-0.20,-0.53,0.02,-0.08,0.23,0.26,0.00
31.192,-0.18,0.27,0.86,-0.20,-0.53,0.02,-0.08,0.23,0.26,0.00
31.193,-0.18,0.27,0.86,-0.62,-1.08,-0.78,-0.08,0.23,0.26,0.00
31.231,-0.17,0.27,0.91,-0.62,-1.08,-0.78,-0.08,0.23,0.26,0.00
31.231,-0.17,0.27,0.91,-0.20,-1.12,0.03,-0.08,0.23,0.26,0.00
31.271,-0.17,0.27,0.91,-0.20,-1.12,0.03,-0.27,0.25,0.47,0.00
31.271,-0.17,0.27,0.91,-0.46,-0.96,-0.12,-0.27,0.25,0.47,0.00
31.311,-0.17,0.27,0.91,-0.46,-0.96,-0.12,-0.23,0.14,0.63,0.00
31.311,-0.17,0.30,0.95,-0.46,-0.96,-0.12,-0.23,0.14,0.63,0.00
31.311,-0.17,0.30,0.95,-0.61,-0.67,-0.04,-0.23,0.14,0.63,0.00
31.35,-0.17,0.30,0.95,-0.42,-0.42,0.42,-0.23,0.14,0.63,0.00
31.389,-0.17,0.30,0.95,-0.42,-0.42,0.42,-0.21,0.21,0.59,0.00
31.39,-0.12,0.32,0.92,-0.42,-0.42,0.42,-0.21,0.21,0.59,0.00
31.39,-0.12,0.32,0.92,0.01,-0.34,0.12,-0.21,0.21,0.59,0.00
31.429,-0.12,0.34,0.79,0.01,-0.34,0.12,-0.21,0.21,0.59,0.00
31.429,-0.12,0.34,0.79,0.00,-0.23,-0.88,-0.21,0.21,0.59,0.00
31.469,-0.12,0.34,0.79,0.00,-0.23,-0.88,-0.15,0.23,0.39,0.00
31.469,-0.12,0.34,0.79,0.09,0.02,-1.42,-0.15,0.23,0.39,0.00
31.509,-0.12,0.34,0.79,0.09,0.02,-1.42,-0.38,0.12,0.26,0.00
31.509,-0.12,0.37,0.91,0.09,0.02,-1.42,-0.38,0.12,0.26,0.00
31.509,-0.12,0.37,0.91,0.18,0.48,-0.81,-0.38,0.12,0.26,0.00
31.548,-0.12,0.37,0.91,-0.00,0.55,0.01,-0.38,0.12,0.26,0.00
31.587,-0.12,0.37,0.91,-0.00,0.55,0.01,-0.36,-0.11,0.19,0.00
31.587,-0.08,0.38,0.88,-0.00,0.55,0.01,-0.36,-0.11,0.19,0.00
31.587,-0.08,0.38,0.88,0.15,0.84,-0.69,-0.36,-0.11,0.19,0.00
31.626,-0.08,0.38,0.88,0.60,0.86,-0.54,-0.36,-0.11,0.19,0.00
31.666,-0.08,0.38,0.88,0.60,0.86,-0.54,-0.49,-0.27,0.13,0.00
31.668,0.01,0.39,1.00,0.60,0.86,-0.54,-0.49,-0.27,0.13,0.00
31.668,0.01,0.39,1.00,1.04,1.19,0.40,-0.49,-0.27,0.13,0.00
31.706,0.01,0.39,1.00,1.04,1.19,0.40,-0.44,-0.09,-0.08,0.00
31.706,-0.02,0.35,1.09,1.04,1.19,0.40,-0.44,-0.09,-0.08,0.00
31.707,-0.02,0.35,1.09,0.36,0.95,0.38,-0.44,-0.09,-0.08,0.00
31.745,-0.02,0.35,1.09,0.80,1.05,1.65,-0.44,-0.09,-0.08,0.00
31.786,-0.02,0.35,1.09,0.80,1.05,1.65,-0.09,0.06,-0.07,0.00
31.787,-0.05,0.28,1.01,0.80,1.05,1.65,-0.09,0.06,-0.07,0.00
31.787,-0.05,0.28,1.01,0.25,0.44,0.42,-0.09,0.06,-0.07,0.00
31.825,-0.05,0.28,1.01,0.73,0.12,0.33,-0.09,0.06,-0.07,0.00
31.864,-0.05,0.28,1.01,0.73,0.12,0.33,-0.00,-0.05,-0.01,0.00
31.865,0.01,0.33,1.09,0.73,0.12,0.33,-0.00,-0.05,-0.01,0.00
31.865,0.01,0.33,1.09,0.95,0.72,1.18,-0.00,-0.05,-0.01,0.00
31.904,0.02,0.28,1.02,0.95,0.72,1.18,-0.00,-0.05,-0.01,0.00
31.905,0.02,0.28,1.02,0.95,0.66,0.83,-0.00,-0.05,-0.01,0.00
31.943,0.02,0.28,1.02,0.95,0.66,0.83,0.34,-0.43,-0.40,0.00
31.944,0.02,0.28,1.02,0.82,-0.09,0.36,0.34,-0.43,-0.40,0.00
31.983,0.02,0.28,1.02,0.82,-0.09,0.36,0.06,-0.34,-0.70,0.00
31.984,0.02,0.28,1.02,0.97,-0.58,0.45,0.06,-0.34,-0.70,0.00
31.984,0.00,0.19,1.00,0.97,-0.58,0.45,0.06,-0.34,-0.70,0.00
32.026,0.00,0.19,1.00,-0.04,-1.17,0.20,0.06,-0.34,-0.70,0.00
32.062,-0.11,0.16,0.80,-0.04,-1.17,0.20,0.06,-0.34,-0.70,0.00
32.063,-0.11,0.16,0.80,-0.04,-1.17,0.20,0.37,-0.50,-0.83,0.00
32.063,-0.11,0.16,0.80,-0.74,-1.32,-1.44,0.37,-0.50,-0.83,0.00
32.102,0.09,0.21,0.80,-0.74,-1.32,-1.44,0.37,-0.50,-0.83,0.00
32.102,0.09,0.21,0.80,-0.70,-1.20,-2.16,0.37,-0.50,-0.83,0.00
32.141,0.09,0.21,0.80,-0.70,-1.20,-2.16,0.25,-0.59,-0.51,0.00
32.142,0.09,0.21,0.80,1.27,-0.66,-1.38,0.25,-0.59,-0.51,0.00
32.181,0.09,0.21,0.80,1.27,-0.66,-1.38,-0.45,-0.61,-0.56,0.00
32.182,0.07,0.21,1.00,1.27,-0.66,-1.38,-0.45,-0.61,-0.56,0.00
32.182,0.07,0.21,1.00,0.85,-0.49,1.21,-0.45,-0.61,-0.56,0.00
32.221,0.07,0.21,1.00,0.20,-0.60,-0.50,-0.45,-0.61,-0.56,0.00
32.26,0.07,0.21,1.00,0.20,-0.60,-0.50,-0.08,-0.38,-0.51,0.00
32.26,0.05,0.25,0.73,0.20,-0.60,-0.50,-0.08,-0.38,-0.51,0.00
32.261,0.05,0.25,0.73,0.09,-0.11,-2.32,-0.08,-0.38,-0.51,0.00
32.299,0.06,0.38,0.86,0.09,-0.11,-2.32,-0.08,-0.38,-0.51,0.00
32.3,0.06,0.38,0.86,0.12,0.27,-1.73,-0.08,-0.38,-0.51,0.00
32.339,0.06,0.38,0.86,0.12,0.27,-1.73,-0.39,-0.23,-0.32,0.00
32.339,0.06,0.38,0.86,0.19,1.60,-0.89,-0.39,-0.23,-0.32,0.00
32.379,0.05,0.25,1.04,0.19,1.60,-0.89,-0.39,-0.23,-0.32,0.00
32.38,0.05,0.25,1.04,-0.22,-0.12,-0.53,-0.39,-0.23,-0.32,0.00
32.38,0.05,0.25,1.04,-0.22,-0.12,-0.53,-0.40,-0.06,-0.25,0.00
32.418,0.05,0.25,1.04,0.47,0.56,1.68,-0.40,-0.06,-0.25,0.00
32.458,0.05,0.25,1.04,0.47,0.56,1.68,0.15,-0.05,-0.13,0.00
32.458,0.05,0.25,1.04,-0.21,0.06,1.35,0.15,-0.05,-0.13,0.00
32.459,0.02,0.25,1.04,-0.21,0.06,1.35,0.15,-0.05,-0.13,0.00
32.497,-0.01,0.21,1.15,-0.21,0.06,1.35,0.15,-0.05,-0.13,0.00
32.498,-0.01,0.21,1.15,0.09,0.39,-1.16,0.15,-0.05,-0.13,0.00
32.536,-0.01,0.21,1.15,0.09,0.39,-1.16,-0.31,0.18,-0.06,0.00
32.537,-0.01,0.21,1.15,-0.37,0.02,2.00,-0.31,0.18,-0.06,0.00
32.576,0.06,0.13,1.14,-0.37,0.02,2.00,-0.31,0.18,-0.06,0.00
32.577,0.06,0.13,1.14,-0.37,0.02,2.00,-0.32,-0.13,0.02,0.00
32.577,0.06,0.13,1.14,0.09,-0.57,1.08,-0.32,-0.13,0.02,0.00
32.616,0.06,0.13,1.14,0.54,-0.72,1.88,-0.32,-0.13,0.02,0.00
32.655,-0.16,0.12,0.90,0.54,-0.72,1.88,-0.32,-0.13,0.02,0.00
32.656,-0.16,0.12,0.90,0.54,-0.72,1.88,0.42,0.31,-0.59,0.00
32.656,-0.16,0.12,0.90,-1.27,-1.34,-0.53,0.42,0.31,-0.59,0.00
32.695,-0.06,0.13,0.86,-1.27,-1.34,-0.53,0.42,0.31,-0.59,0.00
32.696,-0.06,0.13,0.86,-2.20,-0.10,-1.00,0.42,0.31,-0.59,0.00
32.734,-0.06,0.13,0.86,-2.20,-0.10,-1.00,0.06,0.12,0.45,0.00
32.735,-0.06,0.13,0.86,-0.66,-0.90,-1.08,0.06,0.12,0.45,0.00
32.774,-0.06,0.13,0.86,-0.66,-0.90,-1.08,-0.08,-0.77,0.42,0.00
32.775,-0.06,0.13,0.86,-0.53,-0.62,1.47,-0.08,-0.77,0.42,0.00
32.775,-0.03,0.17,1.06,-0.53,-0.62,1.47,-0.08,-0.77,0.42,0.00
32.813,-0.03,0.17,1.06,-0.81,-0.41,0.58,-0.08,-0.77,0.42,0.00
32.853,-0.03,0.17,1.06,-0.81,-0.41,0.58,0.22,-0.07,0.44,0.00
32.854,0.11,0.22,0.80,-0.81,-0.41,0.58,0.22,-0.07,0.44,0.00
32.854,0.11,0.22,0.80,0.61,-0.20,-1.97,0.22,-0.07,0.44,0.00
32.893,0.11,0.22,0.80,0.42,0.07,-1.05,0.22,-0.07,0.44,0.00
32.932,0.11,0.22,0.80,0.42,0.07,-1.05,-0.02,0.43,0.27,0.00
32.933,0.11,0.22,0.80,-0.46,0.40,-0.86,-0.02,0.43,0.27,0.00
32.933,-0.02,0.27,0.88,-0.46,0.40,-0.86,-0.02,0.43,0.27,0.00
32.971,-0.02,0.27,0.88,-0.46,0.40,-0.86,-0.02,-0.09,0.25,0.00
32.972,0.06,0.25,0.97,-0.46,0.40,-0.86,-0.02,-0.09,0.25,0.00
32.973,0.06,0.25,0.97,0.56,-0.72,0.54,-0.02,-0.09,0.25,0.00
33.011,0.06,0.25,0.97,-0.16,0.63,-0.13,-0.02,-0.09,0.25,0.00
33.051,0.06,0.25,0.97,-0.16,0.63,-0.13,-0.05,-0.50,-0.14,0.00
33.051,0.11,0.34,0.98,-0.16,0.63,-0.13,-0.05,-0.50,-0.14,0.00
33.051,0.11,0.34,0.98,0.82,1.09,0.37,-0.05,-0.50,-0.14,0.00
33.091,0.11,0.34,0.98,-0.19,1.02,-0.13,-0.05,-0.50,-0.14,0.00
33.129,0.11,0.34,0.98,-0.19,1.02,-0.13,0.27,0.32,-0.06,0.00
33.13,0.10,0.33,0.90,-0.19,1.02,-0.13,0.27,0.32,-0.06,0.00
33.131,0.10,0.33,0.90,0.36,0.80,-0.78,0.27,0.32,-0.06,0.00
33.169,0.07,0.30,1.15,0.36,0.80,-0.78,0.27,0.32,-0.06,0.00
33.17,0.07,0.30,1.15,0.84,0.88,0.99,0.27,0.32,-0.06,0.00
33.209,0.07,0.30,1.15,0.84,0.88,0.99,-0.14,-0.29,-0.25,0.00
33.21,0.07,0.30,1.15,-0.25,0.44,2.05,-0.14,-0.29,-0.25,0.00
33.248,0.07,0.30,1.15,-0.25,0.44,2.05,0.27,-0.19,-0.35,0.00
33.249,0.12,0.26,1.07,-0.25,0.44,2.05,0.27,-0.19,-0.35,0.00
33.249,0.12,0.26,1.07,0.38,0.02,1.74,0.27,-0.19,-0.35,0.00
33.287,0.12,0.26,1.07,0.51,-0.13,0.26,0.27,-0.19,-0.35,0.00
33.328,0.12,0.26,1.07,0.40,-0.90,-0.40,0.27,-0.19,-0.35,0.00
33.328,0.10,0.17,0.95,0.40,-0.90,-0.40,0.27,-0.19,-0.35,0.00
33.329,0.10,0.17,0.95,0.40,-0.90,-0.40,0.29,-0.09,-0.44,0.00
33.367,0.11,0.13,0.98,0.40,-0.90,-0.40,0.29,-0.09,-0.44,0.00
33.367,0.11,0.13,0.98,-0.48,-1.79,1.60,0.29,-0.09,-0.44,0.00
33.407,0.11,0.13,0.98,-0.48,-1.79,1.60,0.04,-0.29,-0.64,0.00
33.407,0.11,0.13,0.98,0.47,-1.47,-0.01,0.04,-0.29,-0.64,0.00
33.446,0.11,0.13,0.98,0.47,-1.47,-0.01,0.19,0.21,-0.64,0.00
33.447,0.07,0.21,0.83,0.47,-1.47,-0.01,0.19,0.21,-0.64,0.00
33.447,0.07,0.21,0.83,0.66,-0.83,-1.26,0.19,0.21,-0.64,0.00
33.485,0.07,0.21,0.83,-0.07,-0.80,-1.17,0.19,0.21,-0.64,0.00
33.525,0.07,0.21,0.83,-0.07,-0.80,-1.17,-0.17,0.16,-0.35,0.00
33.526,0.05,0.18,0.93,-0.07,-0.80,-1.17,-0.17,0.16,-0.35,0.00
33.526,0.05,0.18,0.93,0.03,-1.03,-0.25,-0.17,0.16,-0.35,0.00
33.565,0.09,0.24,0.89,0.03,-1.03,-0.25,-0.17,0.16,-0.35,0.00
33.565,0.09,0.24,0.89,0.39,-0.75,-0.18,-0.17,0.16,-0.35,0.00
33.604,0.09,0.24,0.89,0.39,-0.75,-0.18,-0.08,-0.09,-0.35,0.00
33.605,0.09,0.24,0.89,0.59,-0.37,-0.71,-0.08,-0.09,-0.35,0.00
33.644,0.09,0.24,0.89,0.59,-0.37,-0.71,0.13,0.41,-0.30,0.00
33.644,0.03,0.29,0.83,0.59,-0.37,-0.71,0.13,0.41,-0.30,0.00
33.645,0.03,0.29,0.83,0.33,-0.08,-1.79,0.13,0.41,-0.30,0.00
33.684,0.03,0.29,0.83,0.15,0.13,-0.68,0.13,0.41,-0.30,0.00
33.728,0.03,0.29,0.83,0.15,0.13,-0.68,-0.07,0.10,-0.25,0.00
33.729,0.02,0.30,1.01,0.15,0.13,-0.68,-0.07,0.10,-0.25,0.00
33.729,0.02,0.30,1.01,0.17,0.10,0.61,-0.07,0.10,-0.25,0.00
33.763,-0.03,0.35,0.93,0.17,0.10,0.61,-0.07,0.10,-0.25,0.00
33.763,-0.03,0.35,0.93,0.39,0.40,0.58,-0.07,0.10,-0.25,0.00
33.803,-0.03,0.35,0.93,0.39,0.40,0.58,0.24,0.01,-0.27,0.00
33.804,-0.03,0.35,0.93,-0.19,0.50,-0.19,0.24,0.01,-0.27,0.00
33.842,-0.03,0.35,0.93,-0.19,0.50,-0.19,0.04,-0.11,-0.11,0.00
33.843,0.02,0.30,1.06,-0.19,0.50,-0.19,0.04,-0.11,-0.11,0.00
33.843,0.02,0.30,1.06,-0.14,0.32,1.30,0.04,-0.11,-0.11,0.00
33.881,0.02,0.30,1.06,0.39,-0.18,1.01,0.04,-0.11,-0.11,0.00
33.921,0.02,0.30,1.06,0.38,-0.19,0.24,0.04,-0.11,-0.11,0.00
33.922,0.04,0.30,0.96,0.38,-0.19,0.24,0.04,-0.11,-0.11,0.00
33.923,0.04,0.30,0.96,0.38,-0.19,0.24,0.30,-0.09,-0.19,0.00
33.96,0.04,0.30,0.96,0.40,-0.18,0.10,0.30,-0.09,-0.19,0.00
34.0,0.04,0.30,0.96,0.75,-0.54,-0.01,0.30,-0.09,-0.19,0.00
34.001,0.06,0.27,0.94,0.75,-0.54,-0.01,0.30,-0.09,-0.19,0.00
34.001,0.06,0.27,0.94,0.75,-0.54,-0.01,0.17,0.07,-0.27,0.00
34.039,0.06,0.27,0.94,0.75,-0.54,-0.01,0.09,-0.13,-0.45,0.00
34.04,-0.03,0.19,0.95,0.75,-0.54,-0.01,0.09,-0.13,-0.45,0.00
34.04,-0.03,0.19,0.95,-0.20,-1.21,1.22,0.09,-0.13,-0.45,0.00
34.079,-0.03,0.19,0.95,-0.22,-1.48,-0.37,0.09,-0.13,-0.45,0.00
34.118,-0.03,0.19,0.95,-0.22,-1.48,-0.37,0.10,-0.46,-0.58,0.00
34.119,0.07,0.27,0.88,-0.22,-1.48,-0.37,0.10,-0.46,-0.58,0.00
34.12,0.07,0.27,0.88,0.49,-0.68,-1.25,0.10,-0.46,-0.58,0.00
34.158,0.07,0.27,0.88,0.98,-0.48,0.45,0.10,-0.46,-0.58,0.00
34.198,0.07,0.27,0.88,0.98,-0.48,0.45,0.07,-0.04,-0.76,0.00
34.199,-0.04,0.30,0.95,0.98,-0.48,0.45,0.07,-0.04,-0.76,0.00
34.199,-0.04,0.30,0.95,-0.25,-0.37,0.16,0.07,-0.04,-0.76,0.00
34.237,0.00,0.24,1.06,-0.25,-0.37,0.16,0.07,-0.04,-0.76,0.00
34.238,0.00,0.24,1.06,-0.33,-0.53,-0.15,0.07,-0.04,-0.76,0.00
34.276,0.00,0.24,1.06,-0.33,-0.53,-0.15,-0.13,-0.17,-0.70,0.00
34.277,0.00,0.24,1.06,0.31,-0.89,1.57,-0.13,-0.17,-0.70,0.00
34.316,0.00,0.24,1.06,0.31,-0.89,1.57,-0.05,-0.48,-0.91,0.00
34.317,0.06,0.20,0.98,0.31,-0.89,1.57,-0.05,-0.48,-0.91,0.00
34.317,0.06,0.20,0.98,0.61,-1.15,0.86,-0.05,-0.48,-0.91,0.00
34.355,0.06,0.20,0.98,0.47,-1.17,-0.32,-0.05,-0.48,-0.91,0.00
34.395,0.03,0.23,0.85,0.47,-1.17,-0.32,-0.05,-0.48,-0.91,0.00
34.395,0.03,0.23,0.85,0.30,-1.01,-0.84,-0.05,-0.48,-0.91,0.00
34.396,0.03,0.23,0.85,0.30,-1.01,-0.84,0.14,-0.60,-1.28,0.00
34.435,0.03,0.23,0.85,-0.02,-0.87,-0.62,0.14,-0.60,-1.28,0.00
34.435,0.02,0.23,0.95,-0.02,-0.87,-0.62,0.14,-0.60,-1.28,0.00
34.474,0.02,0.23,0.95,-0.02,-0.87,-0.62,-0.05,-0.51,-1.47,0.00
34.475,0.02,0.23,0.95,0.17,-0.96,0.34,-0.05,-0.51,-1.47,0.00
34.514,0.04,0.25,0.96,0.17,-0.96,0.34,-0.05,-0.51,-1.47,0.00
34.515,0.04,0.25,0.96,0.17,-0.96,0.34,-0.06,-0.54,-1.69,0.00
34.515,0.04,0.25,0.96,0.35,-0.74,-0.06,-0.06,-0.54,-1.69,0.00
34.554,0.04,0.25,0.96,0.44,-0.62,0.38,-0.06,-0.54,-1.69,0.00
34.594,0.04,0.25,0.96,-0.27,-0.71,1.13,-0.06,-0.54,-1.69,0.00
34.594,-0.04,0.23,1.05,-0.27,-0.71,1.13,-0.06,-0.54,-1.69,0.00
34.595,-0.04,0.23,1.05,-0.27,-0.71,1.13,-0.13,-0.39,-1.90,0.00
34.634,0.01,0.14,0.97,-0.27,-0.71,1.13,-0.13,-0.39,-1.90,0.00
34.635,0.01,0.14,0.97,-0.07,-1.00,0.46,-0.13,-0.39,-1.90,0.00
34.672,0.01,0.14,0.97,-0.07,-1.00,0.46,0.06,-0.29,-1.87,0.00
34.673,0.01,0.14,0.97,0.55,-1.68,0.26,0.06,-0.29,-1.87,0.00
34.711,0.01,0.14,0.97,0.42,-1.93,-0.26,0.06,-0.29,-1.87,0.00
34.712,0.04,0.12,0.92,0.42,-1.93,-0.26,0.06,-0.29,-1.87,0.00
34.712,0.04,0.12,0.92,0.42,-1.93,-0.26,-0.06,-0.42,-1.86,0.00
34.751,0.04,0.12,0.92,0.95,-1.35,-0.24,-0.06,-0.42,-1.86,0.00
34.791,0.04,0.12,0.92,0.95,-1.35,-0.24,-0.22,-0.66,-1.81,0.00
34.792,0.06,0.18,0.96,0.95,-1.35,-0.24,-0.22,-0.66,-1.81,0.00
34.792,0.06,0.18,0.96,0.76,-0.96,0.03,-0.22,-0.66,-1.81,0.00
34.83,0.08,0.21,1.04,0.76,-0.96,0.03,-0.22,-0.66,-1.81,0.00
34.83,0.08,0.21,1.04,0.97,-0.42,0.02,-0.22,-0.66,-1.81,0.00
34.869,0.08,0.21,1.04,0.97,-0.42,0.02,-0.28,-0.54,-1.69,0.00
34.869,0.08,0.21,1.04,0.96,-0.29,0.83,-0.28,-0.54,-1.69,0.00
34.91,0.08,0.21,1.04,0.96,-0.29,0.83,-0.11,-0.48,-1.52,0.00
34.91,0.08,0.21,1.04,0.08,-0.01,0.98,-0.11,-0.48,-1.52,0.00
34.911,0.07,0.24,1.02,0.08,-0.01,0.98,-0.11,-0.48,-1.52,0.00
34.949,0.07,0.24,1.02,1.24,0.06,0.32,-0.11,-0.48,-1.52,0.00
34.989,0.07,0.24,1.02,1.24,0.06,0.32,-0.04,-0.48,-1.35,0.00
34.99,0.09,0.23,1.08,1.24,0.06,0.32,-0.04,-0.48,-1.35,0.00
34.991,0.09,0.23,1.08,0.85,0.02,1.11,-0.04,-0.48,-1.35,0.00
35.032,0.14,0.20,0.97,0.85,0.02,1.11,-0.04,-0.48,-1.35,0.00
35.033,0.14,0.20,0.97,0.98,-0.10,1.01,-0.04,-0.48,-1.35,0.00
35.067,0.14,0.20,0.97,0.98,-0.10,1.01,0.09,-0.51,-1.32,0.00
35.068,0.14,0.20,0.97,1.18,-0.37,-0.00,0.09,-0.51,-1.32,0.00
35.107,0.14,0.20,0.97,1.18,-0.37,-0.00,0.08,-0.40,-1.38,0.00
35.108,0.14,0.20,0.97,1.46,-0.50,1.16,0.08,-0.40,-1.38,0.00
35.109,0.17,0.18,1.07,1.46,-0.50,1.16,0.08,-0.40,-1.38,0.00
35.146,0.17,0.18,1.07,1.37,-0.71,0.99,0.08,-0.40,-1.38,0.00
35.186,0.17,0.18,1.07,1.37,-0.71,0.99,0.22,-0.37,-1.47,0.00
35.187,0.14,0.16,0.95,1.37,-0.71,0.99,0.22,-0.37,-1.47,0.00
35.187,0.14,0.16,0.95,1.05,-0.92,-0.25,0.22,-0.37,-1.47,0.00
35.226,0.14,0.16,0.95,1.27,-1.07,0.03,0.22,-0.37,-1.47,0.00
35.265,0.14,0.16,0.95,0.85,-1.13,0.42,0.22,-0.37,-1.47,0.00
35.266,0.11,0.15,1.00,0.85,-1.13,0.42,0.22,-0.37,-1.47,0.00
35.266,0.11,0.15,1.00,0.85,-1.13,0.42,0.03,-0.35,-1.53,0.00
35.305,0.11,0.15,1.00,0.85,-1.13,0.42,0.22,-0.21,-1.41,0.00
35.305,0.06,0.20,0.90,0.85,-1.13,0.42,0.22,-0.21,-1.41,0.00
35.306,0.06,0.20,0.90,0.24,-0.95,-0.09,0.22,-0.21,-1.41,0.00
35.344,0.06,0.20,0.90,0.59,-0.63,-0.68,0.22,-0.21,-1.41,0.00
35.384,0.00,0.20,1.00,0.59,-0.63,-0.68,0.22,-0.21,-1.41,0.00
35.385,0.00,0.20,1.00,0.01,-0.64,0.07,0.22,-0.21,-1.41,0.00
35.385,0.00,0.20,1.00,0.01,-0.64,0.07,-0.08,-0.38,-1.27,0.00
35.423,0.00,0.20,1.00,-0.39,-0.70,0.85,-0.08,-0.38,-1.27,0.00
35.466,0.00,0.20,1.00,-0.39,-0.70,0.85,0.02,-0.37,-1.14,0.00
35.466,0.00,0.20,1.00,-0.43,-0.76,0.32,0.02,-0.37,-1.14,0.00
35.467,-0.03,0.19,0.97,-0.43,-0.76,0.32,0.02,-0.37,-1.14,0.00
35.502,-0.05,0.20,0.86,-0.43,-0.76,0.32,0.02,-0.37,-1.14,0.00
35.503,-0.05,0.20,0.86,-0.55,-0.66,-1.28,0.02,-0.37,-1.14,0.00
35.541,-0.05,0.20,0.86,-0.55,-0.66,-1.28,0.14,-0.23,-1.08,0.00
35.542,-0.05,0.20,0.86,-0.59,-0.80,-0.86,0.14,-0.23,-1.08,0.00
35.582,-0.05,0.20,0.86,-0.59,-0.80,-0.86,-0.18,-0.06,-0.97,0.00
35.582,-0.05,0.20,0.86,-1.19,-0.59,-1.19,-0.18,-0.06,-0.97,0.00
35.583,-0.13,0.21,0.98,-1.19,-0.59,-1.19,-0.18,-0.06,-0.97,0.00
35.621,-0.13,0.21,0.98,-1.21,-0.30,1.78,-0.18,-0.06,-0.97,0.00
35.66,-0.13,0.21,0.98,-0.96,0.20,1.41,-0.18,-0.06,-0.97,0.00
35.661,-0.12,0.28,1.08,-0.96,0.20,1.41,-0.18,-0.06,-0.97,0.00
35.661,-0.12,0.28,1.08,-0.96,0.20,1.41,-0.14,-0.27,-0.98,0.00
35.7,-0.22,0.29,1.01,-0.96,0.20,1.41,-0.14,-0.27,-0.98,0.00
35.701,-0.22,0.29,1.01,-1.84,0.45,0.00,-0.14,-0.27,-0.98,0.00
35.74,-0.22,0.29,1.01,-1.95,0.39,0.51,-0.14,-0.27,-0.98,0.00
35.74,-0.22,0.29,1.01,-1.95,0.39,0.51,0.03,-0.02,-0.95,0.00
35.779,-0.22,0.29,1.01,-1.95,0.39,0.51,-0.03,-0.26,-0.76,0.00
35.78,-0.22,0.29,1.01,-0.69,0.08,0.66,-0.03,-0.26,-0.76,0.00
35.78,-0.10,0.26,0.97,-0.69,0.08,0.66,-0.03,-0.26,-0.76,0.00
35.819,-0.10,0.26,0.97,-0.64,0.00,-0.51,-0.03,-0.26,-0.76,0.00
35.858,-0.10,0.27,0.89,-0.64,0.00,-0.51,-0.03,-0.26,-0.76,0.00
35.859,-0.10,0.27,0.89,-0.64,0.00,-0.51,0.05,-0.17,-0.87,0.00
35.859,-0.10,0.27,0.89,-0.81,0.14,-0.87,0.05,-0.17,-0.87,0.00
35.898,-0.10,0.27,0.89,-0.33,0.17,-0.16,0.05,-0.17,-0.87,0.00
35.898,-0.10,0.30,0.84,-0.33,0.17,-0.16,0.05,-0.17,-0.87,0.00
35.937,-0.10,0.30,0.84,-0.33,0.17,-0.16,0.09,-0.23,-0.93,0.00
35.938,-0.10,0.30,0.84,-0.66,0.43,-1.27,0.09,-0.23,-0.93,0.00
35.977,-0.13,0.33,0.87,-0.66,0.43,-1.27,0.09,-0.23,-0.93,0.00
35.978,-0.13,0.33,0.87,-0.66,0.43,-1.27,-0.03,-0.15,-0.82,0.00
35.978,-0.13,0.33,0.87,-1.05,0.54,-1.36,-0.03,-0.15,-0.82,0.00
36.017,-0.13,0.33,0.87,-0.77,0.77,-0.50,-0.03,-0.15,-0.82,0.00
36.056,-0.13,0.33,0.87,-0.77,0.77,-0.50,-0.05,-0.27,-0.63,0.00
36.057,-0.08,0.35,0.93,-0.77,0.77,-0.50,-0.05,-0.27,-0.63,0.00
36.057,-0.08,0.35,0.93,-0.34,0.91,-0.06,-0.05,-0.27,-0.63,0.00
36.096,-0.08,0.35,0.93,-0.58,0.93,-0.78,-0.05,-0.27,-0.63,0.00
36.096,-0.10,0.38,0.87,-0.58,0.93,-0.78,-0.05,-0.27,-0.63,0.00
36.135,-0.10,0.38,0.87,-0.58,0.93,-0.78,0.06,-0.15,-0.56,0.00
36.136,-0.10,0.38,0.87,-0.64,1.19,-0.85,0.06,-0.15,-0.56,0.00
36.174,-0.10,0.38,0.87,-0.64,1.19,-0.85,-0.20,-0.33,-0.46,0.00
36.175,-0.07,0.38,1.00,-0.64,1.19,-0.85,-0.20,-0.33,-0.46,0.00
36.176,-0.07,0.38,1.00,-0.66,1.22,-1.09,-0.20,-0.33,-0.46,0.00
36.215,-0.07,0.38,1.00,-0.37,1.36,1.19,-0.20,-0.33,-0.46,0.00
36.254,-0.03,0.37,1.03,-0.37,1.36,1.19,-0.20,-0.33,-0.46,0.00
36.254,-0.03,0.37,1.03,-0.37,1.36,1.19,0.05,-0.18,-0.45,0.00
36.255,-0.03,0.37,1.03,0.12,0.96,1.02,0.05,-0.18,-0.45,0.00
36.294,-0.03,0.37,1.03,-0.49,1.17,-0.06,0.05,-0.18,-0.45,0.00
36.333,-0.06,0.36,1.07,-0.49,1.17,-0.06,0.05,-0.18,-0.45,0.00
36.334,-0.06,0.36,1.07,-0.49,1.17,-0.06,0.20,-0.13,-0.49,0.00
36.334,-0.06,0.36,1.07,-0.28,0.85,1.12,0.20,-0.13,-0.49,0.00
36.372,0.01,0.30,1.16,-0.28,0.85,1.12,0.20,-0.13,-0.49,0.00
36.373,0.01,0.30,1.16,-0.20,0.50,1.20,0.20,-0.13,-0.49,0.00
36.373,0.01,0.30,1.16,-0.20,0.50,1.20,0.15,-0.03,-0.39,0.00
36.412,0.01,0.30,1.16,0.62,-0.07,2.21,0.15,-0.03,-0.39,0.00
36.451,0.01,0.30,1.16,0.62,-0.07,2.21,0.24,-0.11,-0.51,0.00
36.452,0.01,0.30,1.16,0.14,-0.66,1.58,0.24,-0.11,-0.51,0.00
36.452,-0.05,0.20,1.04,0.14,-0.66,1.58,0.24,-0.11,-0.51,0.00
36.491,-0.05,0.20,1.04,-0.56,-1.44,-0.34,0.24,-0.11,-0.51,0.00
36.532,-0.05,0.20,1.04,-0.56,-1.44,-0.34,0.29,-0.12,-0.54,0.00
36.533,-0.00,0.16,0.95,-0.56,-1.44,-0.34,0.29,-0.12,-0.54,0.00
36.534,-0.00,0.16,0.95,0.28,-1.49,0.12,0.29,-0.12,-0.54,0.00
36.57,-0.00,0.23,0.85,0.28,-1.49,0.12,0.29,-0.12,-0.54,0.00
36.571,-0.00,0.23,0.85,0.70,-1.07,-1.73,0.29,-0.12,-0.54,0.00
36.61,-0.00,0.23,0.85,0.70,-1.07,-1.73,0.22,-0.30,-0.62,0.00
36.611,-0.00,0.23,0.85,0.22,-0.84,-0.64,0.22,-0.30,-0.62,0.00
36.649,-0.00,0.23,0.85,0.22,-0.84,-0.64,0.01,-0.08,-0.44,0.00
36.65,-0.02,0.25,0.91,0.22,-0.84,-0.64,0.01,-0.08,-0.44,0.00
36.65,-0.02,0.25,0.91,0.13,-0.74,-0.81,0.01,-0.08,-0.44,0.00
36.689,-0.02,0.25,0.91,0.14,-0.60,0.16,0.01,-0.08,-0.44,0.00
36.728,-0.02,0.25,0.91,0.14,-0.60,0.16,-0.03,-0.23,-0.27,0.00
36.729,0.04,0.27,0.88,0.14,-0.60,0.16,-0.03,-0.23,-0.27,0.00
36.729,0.04,0.27,0.88,0.63,-0.44,-0.61,-0.03,-0.23,-0.27,0.00
36.768,0.02,0.31,0.91,0.63,-0.44,-0.61,-0.03,-0.23,-0.27,0.00
36.768,0.02,0.31,0.91,0.54,-0.21,-1.05,-0.03,-0.23,-0.27,0.00
36.808,0.02,0.31,0.91,0.54,-0.21,-1.05,-0.07,-0.27,-0.26,0.00
36.808,0.02,0.31,0.91,0.25,0.06,-0.21,-0.07,-0.27,-0.26,0.00
36.847,0.02,0.31,0.91,0.08,-0.09,-0.42,-0.07,-0.27,-0.26,0.00
36.847,0.01,0.30,0.90,0.08,-0.09,-0.42,-0.07,-0.27,-0.26,0.00
36.848,0.01,0.30,0.90,0.08,-0.09,-0.42,0.06,-0.11,-0.18,0.00
36.886,0.01,0.30,0.90,0.21,-0.16,-0.30,0.06,-0.11,-0.18,0.00
36.927,0.01,0.30,0.90,-0.03,0.22,-0.59,0.06,-0.11,-0.18,0.00
36.928,0.01,0.30,0.90,-0.03,0.22,-0.59,0.07,-0.18,-0.16,0.00
36.928,-0.00,0.34,0.89,-0.03,0.22,-0.59,0.07,-0.18,-0.16,0.00
36.966,-0.00,0.34,0.89,0.04,0.37,-0.05,0.07,-0.18,-0.16,0.00
36.966,-0.01,0.35,0.98,0.04,0.37,-0.05,0.07,-0.18,-0.16,0.00
37.005,-0.01,0.35,0.98,0.04,0.37,-0.05,-0.04,-0.05,-0.10,0.00
37.006,-0.01,0.35,0.98,-0.18,0.30,0.45,-0.04,-0.05,-0.10,0.00
37.044,-0.01,0.35,0.98,-0.18,0.30,0.45,-0.06,0.04,-0.05,0.00
37.045,-0.02,0.32,1.01,-0.18,0.30,0.45,-0.06,0.04,-0.05,0.00
37.045,-0.02,0.32,1.01,-0.02,0.18,0.34,-0.06,0.04,-0.05,0.00
