
time,gFx,gFy,gFz,ax,ay,az,wx,wy,wz,Latitude,Longitude,Speed (m/s),
0.0740,0.0000,0.0000,0.0000,0.0000,0.0000,0.0000,0.3421,-0.0852,0.2482,0.00000000,0.00000000,0.00000000,
0.0760,0.0000,0.0000,0.0000,0.2947,-0.3607,-1.8073,0.3421,-0.0852,0.2482,25.25706333,83.00788833,0.00000000,
0.1150,0.0000,0.0000,0.0000,0.2947,-0.3607,-1.8073,0.0020,-0.0008,0.0043,25.25706333,83.00788833,0.00000000,
0.1170,0.0000,0.0000,0.0000,0.3970,-0.0332,-0.5372,0.0020,-0.0008,0.0043,25.25706333,83.00788833,0.00000000,
0.1830,0.0000,0.0000,0.0000,0.3970,-0.0332,-0.5372,-0.0112,-0.0053,0.0194,25.25706333,83.00788833,0.00000000,
0.1840,0.0000,0.0000,0.0000,0.3737,-0.3103,0.3694,-0.0112,-0.0053,0.0194,25.25706333,83.00788833,0.00000000,
0.2470,0.0000,0.0000,0.0000,0.3737,-0.3103,0.3694,-0.0006,-0.0026,0.0100,25.25706333,83.00788833,0.00000000,
0.2490,0.0000,0.0000,0.0000,-0.2881,0.0028,-0.5656,-0.0006,-0.0026,0.0100,25.25706333,83.00788833,0.00000000,
0.3130,0.0000,0.0000,0.0000,-0.2881,0.0028,-0.5656,0.0302,0.0330,-0.1084,25.25706333,83.00788833,0.00000000,
0.3150,0.0000,0.0000,0.0000,-0.3641,0.0022,-0.0881,0.0302,0.0330,-0.1084,25.25706333,83.00788833,0.00000000,
0.3820,0.0000,0.0000,0.0000,-0.3641,0.0022,-0.0881,-0.1631,-0.0215,0.0155,25.25706333,83.00788833,0.00000000,
0.3840,0.0000,0.0000,0.0000,0.1601,-0.1129,0.5520,-0.1631,-0.0215,0.0155,25.25706333,83.00788833,0.00000000,
0.4140,-0.0830,0.3302,0.9606,0.1601,-0.1129,0.5520,-0.1631,-0.0215,0.0155,25.25706333,83.00788833,0.00000000,
0.4450,-0.0830,0.3302,0.9606,0.1601,-0.1129,0.5520,0.1544,-0.0668,0.2044,25.25706333,83.00788833,0.00000000,
0.4470,-0.0830,0.3302,0.9606,0.0051,0.6650,-0.7242,0.1544,-0.0668,0.2044,25.25706333,83.00788833,0.00000000,
0.4800,-0.1250,0.3052,1.1157,0.0051,0.6650,-0.7242,0.1544,-0.0668,0.2044,25.25706333,83.00788833,0.00000000,
0.5130,-0.1250,0.3052,1.1157,0.0051,0.6650,-0.7242,-0.3196,-0.0020,-0.0302,25.25706333,83.00788833,0.00000000,
0.5200,-0.1250,0.3052,1.1157,-0.0208,-1.1445,2.8714,-0.3196,-0.0020,-0.0302,25.25706333,83.00788833,0.00000000,
0.5480,-0.0130,0.1870,1.0847,-0.0208,-1.1445,2.8714,-0.3196,-0.0020,-0.0302,25.25706333,83.00788833,0.00000000,
0.5790,-0.0130,0.1870,1.0847,-0.0208,-1.1445,2.8714,-1.1082,-0.2822,1.0725,25.25706333,83.00788833,0.00000000,
0.5810,-0.0130,0.1870,1.0847,0.6550,-0.4539,0.4136,-1.1082,-0.2822,1.0725,25.25706333,83.00788833,0.00000000,
0.6120,-0.0400,0.2271,0.9177,0.6550,-0.4539,0.4136,-1.1082,-0.2822,1.0725,25.25706333,83.00788833,0.00000000,
0.6430,-0.0400,0.2271,0.9177,0.6550,-0.4539,0.4136,-0.1607,-0.0258,0.2209,25.25706333,83.00788833,0.00000000,
0.6450,-0.0400,0.2271,0.9177,-0.4377,0.1093,-0.2520,-0.1607,-0.0258,0.2209,25.25706333,83.00788833,0.00000000,
0.6780,-0.0920,0.2311,0.9556,-0.4377,0.1093,-0.2520,-0.1607,-0.0258,0.2209,25.25706333,83.00788833,0.00000000,
0.7090,-0.0920,0.2311,0.9556,-0.4377,0.1093,-0.2520,-0.1187,0.0554,-0.0663,25.25706333,83.00788833,0.00000000,
0.7110,-0.0920,0.2311,0.9556,0.2532,-0.2653,0.0481,-0.1187,0.0554,-0.0663,25.25706333,83.00788833,0.00000000,
0.7440,0.0159,0.2001,0.9906,0.2532,-0.2653,0.0481,-0.1187,0.0554,-0.0663,25.25706333,83.00788833,0.00000000,
0.7770,0.0159,0.2001,0.9906,0.2532,-0.2653,0.0481,-0.1520,-0.2072,0.8159,25.25706333,83.00788833,0.00000000,
0.7790,0.0159,0.2001,0.9906,0.3054,0.0378,-0.5201,-0.1520,-0.2072,0.8159,25.25706333,83.00788833,0.00000000,
0.8100,-0.0130,0.2541,0.8826,0.3054,0.0378,-0.5201,-0.1520,-0.2072,0.8159,25.25706333,83.00788833,0.00000000,
0.8410,-0.0130,0.2541,0.8826,0.3054,0.0378,-0.5201,0.2751,-0.1408,0.3350,25.25706333,83.00788833,0.00000000,
0.8430,-0.0130,0.2541,0.8826,0.1912,0.1038,-0.5820,0.2751,-0.1408,0.3350,25.25706333,83.00788833,0.00000000,
0.8760,0.0219,0.2661,0.8846,0.1912,0.1038,-0.5820,0.2751,-0.1408,0.3350,25.25706333,83.00788833,0.00000000,
0.9070,0.0219,0.2661,0.8846,0.1912,0.1038,-0.5820,0.4387,-0.1505,0.2404,25.25706333,83.00788833,0.00000000,
0.9090,0.0219,0.2661,0.8846,-0.0037,0.4301,-1.0923,0.4387,-0.1505,0.2404,25.25706333,83.00788833,0.00000000,
0.9420,-0.0300,0.3021,0.9046,-0.0037,0.4301,-1.0923,0.4387,-0.1505,0.2404,25.25706333,83.00788833,0.00000000,
0.9740,-0.0300,0.3021,0.9046,-0.0037,0.4301,-1.0923,0.4198,0.0481,-0.5109,25.25706333,83.00788833,0.00000000,
0.9760,-0.0300,0.3021,0.9046,-0.5742,0.2818,0.1704,0.4198,0.0481,-0.5109,25.25706333,83.00788833,0.00000000,
1.0080,-0.0931,0.3202,0.9737,-0.5742,0.2818,0.1704,0.4198,0.0481,-0.5109,25.25706333,83.00788833,0.00000000,
1.0390,-0.0931,0.3202,0.9737,-0.5742,0.2818,0.1704,0.0671,0.2583,-0.9367,25.25706333,83.00788833,0.00000000,
1.0410,-0.0931,0.3202,0.9737,-0.6577,-0.0465,1.3515,0.0671,0.2583,-0.9367,25.25706333,83.00788833,0.00000000,
1.0740,-0.1541,0.3162,1.1588,-0.6577,-0.0465,1.3515,0.0671,0.2583,-0.9367,25.25706333,83.00788833,0.00000000,
1.1050,-0.1541,0.3162,1.1588,-0.6577,-0.0465,1.3515,-0.0114,0.2827,-0.9852,25.25706333,83.00788833,0.00000000,
1.1070,-0.1541,0.3162,1.1588,-0.4828,0.5776,0.3527,-0.0114,0.2827,-0.9852,25.25706333,83.00788833,0.00000000,
1.1400,-0.1781,0.3321,1.0197,-0.4828,0.5776,0.3527,-0.0114,0.2827,-0.9852,25.25706333,83.00788833,0.00000000,
1.1730,-0.1781,0.3321,1.0197,-0.4828,0.5776,0.3527,0.1772,0.2390,-0.8086,25.25706333,83.00788833,0.00000000,
1.1750,-0.1781,0.3321,1.0197,-0.4961,-0.2246,1.8230,0.1772,0.2390,-0.8086,25.25706333,83.00788833,0.00000000,
1.2060,-0.1000,0.2482,0.9777,-0.4961,-0.2246,1.8230,0.1772,0.2390,-0.8086,25.25706333,83.00788833,0.00000000,
1.2370,-0.1000,0.2482,0.9777,-0.4961,-0.2246,1.8230,-0.2578,0.0311,-0.0094,25.25706333,83.00788833,0.00000000,
1.2390,-0.1000,0.2482,0.9777,0.3280,-0.1262,-0.7978,-0.2578,0.0311,-0.0094,25.25706333,83.00788833,0.00000000,
1.2720,-0.0810,0.2521,0.9206,0.3280,-0.1262,-0.7978,-0.2578,0.0311,-0.0094,25.25706333,83.00788833,0.00000000,
1.3030,-0.0810,0.2521,0.9206,0.3280,-0.1262,-0.7978,-0.2327,-0.1112,0.5544,25.25706333,83.00788833,0.00000000,
1.3050,-0.0810,0.2521,0.9206,0.4367,-0.3459,-0.7592,-0.2327,-0.1112,0.5544,25.25706333,83.00788833,0.00000000,
1.3380,-0.1090,0.2792,0.8265,0.4367,-0.3459,-0.7592,-0.2327,-0.1112,0.5544,25.25706333,83.00788833,0.00000000,
1.3720,-0.1090,0.2792,0.8265,0.4367,-0.3459,-0.7592,0.4002,0.1798,-0.5337,25.25706333,83.00788833,0.00000000,
1.3740,-0.1090,0.2792,0.8265,-0.7726,0.3176,-1.2322,0.4002,0.1798,-0.5337,25.25706333,83.00788833,0.00000000,
1.4040,-0.1270,0.3121,0.8105,-0.7726,0.3176,-1.2322,0.4002,0.1798,-0.5337,25.25706333,83.00788833,0.00000000,
1.4350,-0.1270,0.3121,0.8105,-0.7726,0.3176,-1.2322,0.4843,0.1058,-0.2060,25.25706333,83.00788833,0.00000000,
1.4370,-0.1270,0.3121,0.8105,0.5071,-0.1722,-1.5118,0.4843,0.1058,-0.2060,25.25706333,83.00788833,0.00000000,
1.4700,-0.0990,0.3312,0.9066,0.5071,-0.1722,-1.5118,0.4843,0.1058,-0.2060,25.25706333,83.00788833,0.00000000,
1.5030,-0.0990,0.3312,0.9066,0.5071,-0.1722,-1.5118,0.1327,-0.0890,0.4792,25.25706333,83.00788833,0.00000000,
1.5050,-0.0990,0.3312,0.9066,0.0931,0.2749,0.9293,0.1327,-0.0890,0.4792,25.25706333,83.00788833,0.00000000,
1.5360,-0.1020,0.3922,0.9256,0.0931,0.2749,0.9293,0.1327,-0.0890,0.4792,25.25706333,83.00788833,0.00000000,
1.5690,-0.1020,0.3922,0.9256,0.0931,0.2749,0.9293,0.1434,-0.0608,0.4251,25.25706333,83.00788833,0.00000000,
1.5710,-0.1020,0.3922,0.9256,0.1595,0.1559,0.4403,0.1434,-0.0608,0.4251,25.25706333,83.00788833,0.00000000,
1.6020,-0.0680,0.3622,0.9577,0.1595,0.1559,0.4403,0.1434,-0.0608,0.4251,25.25706333,83.00788833,0.00000000,
1.6330,-0.0680,0.3622,0.9577,0.1595,0.1559,0.4403,-0.0086,-0.1158,0.5050,25.25706333,83.00788833,0.00000000,
1.6350,-0.0680,0.3622,0.9577,0.2404,0.0919,0.7402,-0.0086,-0.1158,0.5050,25.25706333,83.00788833,0.00000000,
1.6680,0.0019,0.3321,1.0467,0.2404,0.0919,0.7402,-0.0086,-0.1158,0.5050,25.25706333,83.00788833,0.00000000,
1.6990,0.0019,0.3321,1.0467,0.2404,0.0919,0.7402,-0.2760,-0.3017,1.1401,25.25706333,83.00788833,0.00000000,
1.7020,0.0019,0.3321,1.0467,1.1879,-0.0282,0.0125,-0.2760,-0.3017,1.1401,25.25706333,83.00788833,0.00000000,
1.7340,-0.0100,0.3912,1.0507,1.1879,-0.0282,0.0125,-0.2760,-0.3017,1.1401,25.25706333,83.00788833,0.00000000,
1.7660,-0.0100,0.3912,1.0507,1.1879,-0.0282,0.0125,-0.1965,-0.1397,0.5409,25.25706333,83.00788833,0.00000000,
1.7680,-0.0100,0.3912,1.0507,-0.4602,0.0635,2.4558,-0.1965,-0.1397,0.5409,25.25706333,83.00788833,0.00000000,
1.8000,-0.0860,0.2911,1.1257,-0.4602,0.0635,2.4558,-0.1965,-0.1397,0.5409,25.25706333,83.00788833,0.00000000,
1.8310,-0.0860,0.2911,1.1257,-0.4602,0.0635,2.4558,-0.3558,0.1490,-0.3215,25.25706333,83.00788833,0.00000000,
1.8330,-0.0860,0.2911,1.1257,-0.2793,-0.0204,-0.0902,-0.3558,0.1490,-0.3215,25.25706333,83.00788833,0.00000000,
1.8660,-0.1170,0.2851,1.0517,-0.2793,-0.0204,-0.0902,-0.3558,0.1490,-0.3215,25.25706333,83.00788833,0.00000000,
1.8970,-0.1170,0.2851,1.0517,-0.2793,-0.0204,-0.0902,-0.2526,0.1847,-0.7253,25.25706333,83.00788833,0.00000000,
1.8990,-0.1170,0.2851,1.0517,-0.3521,-0.5319,0.9564,-0.2526,0.1847,-0.7253,25.25706333,83.00788833,0.00000000,
1.9320,0.0030,0.1441,1.0337,-0.3521,-0.5319,0.9564,-0.2526,0.1847,-0.7253,25.25706333,83.00788833,0.00000000,
1.9650,0.0030,0.1441,1.0337,-0.3521,-0.5319,0.9564,-0.9177,-0.1908,0.5882,25.25706333,83.00788833,0.00000000,
1.9670,0.0030,0.1441,1.0337,0.6948,-0.9528,-0.7300,-0.9177,-0.1908,0.5882,25.25706333,83.00788833,0.00000000,
1.9980,-0.0710,0.1741,0.9006,0.6948,-0.9528,-0.7300,-0.9177,-0.1908,0.5882,25.25706333,83.00788833,0.00000000,
2.0300,-0.0710,0.1741,0.9006,0.6948,-0.9528,-0.7300,-0.3909,0.0590,-0.3160,25.25706333,83.00788833,0.00000000,
2.0320,-0.0710,0.1741,0.9006,-0.6194,-0.1887,-0.8244,-0.3909,0.0590,-0.3160,25.25706333,83.00788833,0.00000000,
2.0640,-0.2061,0.2341,0.7174,-0.6194,-0.1887,-0.8244,-0.3909,0.0590,-0.3160,25.25706333,83.00788833,0.00000000,
2.0950,-0.2061,0.2341,0.7174,-0.6194,-0.1887,-0.8244,0.5972,0.5274,-2.3803,25.25706333,83.00788833,0.00000000,
2.0980,-0.2061,0.2341,0.7174,-1.2287,0.0279,-1.2918,0.5972,0.5274,-2.3803,25.25706333,83.00788833,0.00000000,
2.1300,-0.2491,0.2382,0.8036,-1.2287,0.0279,-1.2918,0.5972,0.5274,-2.3803,25.25706333,83.00788833,0.00000000,
2.1630,-0.2491,0.2382,0.8036,-1.2287,0.0279,-1.2918,0.6966,0.5829,-2.5836,25.25706333,83.00788833,0.00000000,
2.1650,-0.2491,0.2382,0.8036,-0.4614,-0.3045,-0.6224,0.6966,0.5829,-2.5836,25.25706333,83.00788833,0.00000000,
2.1960,-0.1720,0.1581,0.9827,-0.4614,-0.3045,-0.6224,0.6966,0.5829,-2.5836,25.25706333,83.00788833,0.00000000,
2.2270,-0.1720,0.1581,0.9827,-0.4614,-0.3045,-0.6224,-0.4554,-0.1445,-0.5824,25.25706333,83.00788833,0.00000000,
2.2290,-0.1720,0.1581,0.9827,0.5416,-0.6230,0.4472,-0.4554,-0.1445,-0.5824,25.25706333,83.00788833,0.00000000,
2.2620,-0.1191,0.1820,1.0177,0.5416,-0.6230,0.4472,-0.4554,-0.1445,-0.5824,25.25706333,83.00788833,0.00000000,
2.2930,-0.1191,0.1820,1.0177,0.5416,-0.6230,0.4472,0.1402,-0.0821,0.0505,25.25706333,83.00788833,0.00000000,
2.2950,-0.1191,0.1820,1.0177,-1.3348,1.2192,-0.4235,0.1402,-0.0821,0.0505,25.25706333,83.00788833,0.00000000,
2.3280,-0.3221,0.2861,1.2258,-1.3348,1.2192,-0.4235,0.1402,-0.0821,0.0505,25.25706333,83.00788833,0.00000000,
2.3620,-0.3221,0.2861,1.2258,-1.3348,1.2192,-0.4235,0.4492,0.3571,-0.8661,25.25706333,83.00788833,0.00000000,
2.3630,-0.3221,0.2861,1.2258,-0.3519,0.5166,1.9231,0.4492,0.3571,-0.8661,25.25706333,83.00788833,0.00000000,
2.3940,-0.1891,0.2241,1.0997,-0.3519,0.5166,1.9231,0.4492,0.3571,-0.8661,25.25706333,83.00788833,0.00000000,
2.4250,-0.1891,0.2241,1.0997,-0.3519,0.5166,1.9231,-0.2774,-0.1933,0.6341,25.25706333,83.00788833,0.00000000,
2.4270,-0.1891,0.2241,1.0997,0.5503,-0.0582,1.1784,-0.2774,-0.1933,0.6341,25.25706333,83.00788833,0.00000000,
2.4600,-0.1140,0.2421,0.8926,0.5503,-0.0582,1.1784,-0.2774,-0.1933,0.6341,25.25706333,83.00788833,0.00000000,
2.4920,-0.1140,0.2421,0.8926,0.5503,-0.0582,1.1784,0.0194,-0.2665,1.0213,25.25706333,83.00788833,0.00000000,
2.4940,-0.1140,0.2421,0.8926,0.4074,0.4774,-0.4389,0.0194,-0.2665,1.0213,25.25706333,83.00788833,0.00000000,
2.5300,-0.1541,0.3512,0.8336,0.4074,0.4774,-0.4389,0.0194,-0.2665,1.0213,25.25706333,83.00788833,0.00000000,
2.5590,-0.1541,0.3512,0.8336,0.4074,0.4774,-0.4389,0.7389,0.0170,0.5521,25.25706333,83.00788833,0.00000000,
2.5610,-0.1541,0.3512,0.8336,0.6022,0.4420,-1.0333,0.7389,0.0170,0.5521,25.25706333,83.00788833,0.00000000,
2.5930,-0.0030,0.2832,0.8036,0.6022,0.4420,-1.0333,0.7389,0.0170,0.5521,25.25706333,83.00788833,0.00000000,
2.6230,-0.0030,0.2832,0.8036,0.6022,0.4420,-1.0333,0.2170,-0.5047,1.4130,25.25706333,83.00788833,0.00000000,
2.6250,-0.0030,0.2832,0.8036,1.1240,-0.3489,-1.3978,0.2170,-0.5047,1.4130,25.25706333,83.00788833,0.00000000,
2.6580,0.0430,0.2532,0.9356,1.1240,-0.3489,-1.3978,0.2170,-0.5047,1.4130,25.25706333,83.00788833,0.00000000,
2.6890,0.0430,0.2532,0.9356,1.1240,-0.3489,-1.3978,-0.2823,-0.6558,1.3152,25.25706333,83.00788833,0.00000000,
2.6910,0.0430,0.2532,0.9356,0.6569,-0.3080,0.0635,-0.2823,-0.6558,1.3152,25.25706333,83.00788833,0.00000000,
2.7240,0.1170,0.2761,1.0697,0.6569,-0.3080,0.0635,-0.2823,-0.6558,1.3152,25.25706333,83.00788833,0.00000000,
2.7570,0.1170,0.2761,1.0697,0.6569,-0.3080,0.0635,-0.3235,-0.7157,0.8812,25.25706333,83.00788833,0.00000000,
2.7590,0.1170,0.2761,1.0697,0.3632,0.1576,1.9175,-0.3235,-0.7157,0.8812,25.25706333,83.00788833,0.00000000,
2.7900,-0.0690,0.3632,1.2979,0.3632,0.1576,1.9175,-0.3235,-0.7157,0.8812,25.25706333,83.00788833,0.00000000,
2.8210,-0.0690,0.3632,1.2979,0.3632,0.1576,1.9175,-0.1749,-0.0687,-1.1182,25.25706333,83.00788833,0.00000000,
2.8230,-0.0690,0.3632,1.2979,-0.3584,1.0160,2.1448,-0.1749,-0.0687,-1.1182,25.25706333,83.00788833,0.00000000,
2.8560,-0.1451,0.3712,1.2589,-0.3584,1.0160,2.1448,-0.1749,-0.0687,-1.1182,25.25706333,83.00788833,0.00000000,
2.8870,-0.1451,0.3712,1.2589,-0.3584,1.0160,2.1448,-0.1939,0.2343,-2.3792,25.25706333,83.00788833,0.00000000,
2.8910,-0.1451,0.3712,1.2589,-1.9104,0.0709,4.9091,-0.1939,0.2343,-2.3792,25.25706333,83.00788833,0.00000000,
2.9220,-0.1070,0.1441,1.1898,-1.9104,0.0709,4.9091,-0.1939,0.2343,-2.3792,25.25706333,83.00788833,0.00000000,
2.9550,-0.1070,0.1441,1.1898,-1.9104,0.0709,4.9091,-0.4070,0.0475,-2.6478,25.25706333,83.00788833,0.00000000,
2.9570,-0.1070,0.1441,1.1898,-0.9659,-0.1016,-1.2501,-0.4070,0.0475,-2.6478,25.25706333,83.00788833,0.00000000,
2.9880,-0.1260,0.1761,0.9036,-0.9659,-0.1016,-1.2501,-0.4070,0.0475,-2.6478,25.25706333,83.00788833,0.00000000,
3.0210,-0.1260,0.1761,0.9036,-0.9659,-0.1016,-1.2501,0.0023,-0.0642,-2.3386,25.25706333,83.00788833,0.00000000,
3.0310,-0.1260,0.1761,0.9036,0.2252,-0.6153,-1.2723,0.0023,-0.0642,-2.3386,25.25706333,83.00788833,0.00000000,
3.0540,-0.0400,0.1010,0.7895,0.2252,-0.6153,-1.2723,0.0023,-0.0642,-2.3386,25.25706333,83.00788833,0.00000000,
3.0880,-0.0400,0.1010,0.7895,0.2252,-0.6153,-1.2723,-0.3062,-0.4895,-1.4068,25.25706333,83.00788833,0.00000000,
3.0920,-0.0400,0.1010,0.7895,0.8763,-1.1079,-1.7118,-0.3062,-0.4895,-1.4068,25.25706333,83.00788833,0.00000000,
3.1230,-0.0469,0.1050,0.8586,0.8763,-1.1079,-1.7118,-0.3062,-0.4895,-1.4068,25.25706333,83.00788833,0.00000000,
3.1540,-0.0469,0.1050,0.8586,0.8763,-1.1079,-1.7118,-0.3683,-0.4342,-0.3529,25.25706333,83.00788833,0.00000000,
3.1560,-0.0469,0.1050,0.8586,0.3486,-0.0680,-1.4116,-0.3683,-0.4342,-0.3529,25.25706333,83.00788833,0.00000000,
3.1860,-0.1050,0.2011,0.8876,0.3486,-0.0680,-1.4116,-0.3683,-0.4342,-0.3529,25.25706333,83.00788833,0.00000000,
3.2170,-0.1050,0.2011,0.8876,0.3486,-0.0680,-1.4116,0.2896,0.1879,0.5864,25.25706333,83.00788833,0.00000000,
3.2210,-0.1050,0.2011,0.8876,-0.7686,0.6783,-1.0685,0.2896,0.1879,0.5864,25.25706333,83.00788833,0.00000000,
3.2520,-0.2281,0.2732,0.9016,-0.7686,0.6783,-1.0685,0.2896,0.1879,0.5864,25.25706333,83.00788833,0.00000000,
3.2850,-0.2281,0.2732,0.9016,-0.7686,0.6783,-1.0685,0.8027,0.9390,-0.2360,25.25706333,83.00788833,0.00000000,
3.2890,-0.2281,0.2732,0.9016,-1.2861,0.5776,-0.2209,0.8027,0.9390,-0.2360,25.25706333,83.00788833,0.00000000,
3.3180,-0.2801,0.1751,0.9827,-1.2861,0.5776,-0.2209,0.8027,0.9390,-0.2360,25.25706333,83.00788833,0.00000000,
3.3660,-0.2801,0.1751,0.9827,-1.2861,0.5776,-0.2209,0.0963,0.8424,-1.0770,25.25706333,83.00788833,0.00000000,
3.3730,-0.2801,0.1751,0.9827,-1.3287,0.0902,2.1407,0.0963,0.8424,-1.0770,25.25706333,83.00788833,0.00000000,
3.3900,-0.1200,0.2151,0.9156,-1.3287,0.0902,2.1407,0.0963,0.8424,-1.0770,25.25706333,83.00788833,0.00000000,
3.4170,-0.1200,0.2151,0.9156,-1.3287,0.0902,2.1407,-0.3171,0.1873,1.0285,25.25706333,83.00788833,0.00000000,
3.4200,-0.1200,0.2151,0.9156,0.9719,0.1166,-0.3853,-0.3171,0.1873,1.0285,25.25706333,83.00788833,0.00000000,
3.4510,-0.1431,0.2141,1.1558,0.9719,0.1166,-0.3853,-0.3171,0.1873,1.0285,25.25706333,83.00788833,0.00000000,
3.4830,-0.1431,0.2141,1.1558,0.9719,0.1166,-0.3853,-0.4919,-0.1293,2.2828,25.25706333,83.00788833,0.00000000,
3.4850,-0.1431,0.2141,1.1558,1.0881,-0.4399,2.5526,-0.4919,-0.1293,2.2828,25.25706333,83.00788833,0.00000000,
3.5220,-0.0630,0.2332,0.8656,1.0881,-0.4399,2.5526,-0.4919,-0.1293,2.2828,25.25706333,83.00788833,0.00000000,
3.5790,-0.0630,0.2332,0.8656,1.0881,-0.4399,2.5526,-0.1358,-0.1431,2.5080,25.25706333,83.00788833,0.00000000,
3.5810,-0.0630,0.2332,0.8656,-0.8467,0.6865,0.0581,-0.1358,-0.1431,2.5080,25.25706333,83.00788833,0.00000000,
3.5880,-0.2081,0.3021,0.9716,-0.8467,0.6865,0.0581,-0.1358,-0.1431,2.5080,25.25706333,83.00788833,0.00000000,
3.6140,-0.2081,0.3021,0.9716,-0.8467,0.6865,0.0581,0.5819,0.4474,0.0530,25.25703333,83.00788500,0.28824446,
3.6160,-0.2081,0.3021,0.9716,-1.2464,0.7632,-0.1468,0.5819,0.4474,0.0530,25.25703333,83.00788500,0.28824446,
3.6480,-0.1170,0.2401,0.8736,-1.2464,0.7632,-0.1468,0.5819,0.4474,0.0530,25.25703333,83.00788500,0.28824446,
3.6800,-0.1170,0.2401,0.8736,-1.2464,0.7632,-0.1468,0.1117,0.2384,0.4649,25.25703333,83.00788500,0.28824446,
3.6850,-0.1170,0.2401,0.8736,1.3496,-0.6155,-1.1030,0.1117,0.2384,0.4649,25.25703333,83.00788500,0.28824446,
3.7140,0.0430,0.2191,0.8426,1.3496,-0.6155,-1.1030,0.1117,0.2384,0.4649,25.25703333,83.00788500,0.28824446,
3.7480,0.0430,0.2191,0.8426,1.3496,-0.6155,-1.1030,-0.4014,-0.4902,2.7425,25.25703333,83.00788500,0.28824446,
3.7540,0.0430,0.2191,0.8426,1.2583,-0.2544,-0.8757,-0.4014,-0.4902,2.7425,25.25703333,83.00788500,0.28824446,
3.7910,-0.0069,0.3042,0.9737,1.2583,-0.2544,-0.8757,-0.4014,-0.4902,2.7425,25.25703333,83.00788500,0.28824446,
3.8180,-0.0069,0.3042,0.9737,1.2583,-0.2544,-0.8757,-0.0018,-0.2444,1.4323,25.25703333,83.00788500,0.28824446,
3.8210,-0.0069,0.3042,0.9737,0.2819,0.3094,0.1137,-0.0018,-0.2444,1.4323,25.25703333,83.00788500,0.28824446,
3.8460,0.0130,0.2801,1.1228,0.2819,0.3094,0.1137,-0.0018,-0.2444,1.4323,25.25703333,83.00788500,0.28824446,
3.8780,0.0130,0.2801,1.1228,0.2819,0.3094,0.1137,-0.0474,-0.1241,1.0322,25.25703333,83.00788500,0.28824446,
3.8820,0.0130,0.2801,1.1228,0.2571,0.5980,1.4632,-0.0474,-0.1241,1.0322,25.25703333,83.00788500,0.28824446,
3.9120,0.0259,0.2842,1.3189,0.2571,0.5980,1.4632,-0.0474,-0.1241,1.0322,25.25703333,83.00788500,0.28824446,
3.9540,0.0259,0.2842,1.3189,0.2571,0.5980,1.4632,-0.2534,-0.0499,0.7244,25.25703333,83.00788500,0.28824446,
3.9580,0.0259,0.2842,1.3189,0.1528,1.3236,1.9547,-0.2534,-0.0499,0.7244,25.25703333,83.00788500,0.28824446,
3.9850,-0.0219,0.3922,1.1838,0.1528,1.3236,1.9547,-0.2534,-0.0499,0.7244,25.25703333,83.00788500,0.28824446,
4.0110,-0.0219,0.3922,1.1838,0.1528,1.3236,1.9547,-0.0277,0.1123,-0.0327,25.25703333,83.00788500,0.28824446,
4.0150,-0.0219,0.3922,1.1838,-0.4090,0.1133,4.3060,-0.0277,0.1123,-0.0327,25.25703333,83.00788500,0.28824446,
4.0440,-0.0590,0.1391,1.3499,-0.4090,0.1133,4.3060,-0.0277,0.1123,-0.0327,25.25703333,83.00788500,0.28824446,
4.0750,-0.0590,0.1391,1.3499,-0.4090,0.1133,4.3060,-0.8594,0.3196,-0.2461,25.25703333,83.00788500,0.28824446,
4.0780,-0.0590,0.1391,1.3499,-0.6031,-0.4993,0.7246,-0.8594,0.3196,-0.2461,25.25703333,83.00788500,0.28824446,
4.1120,-0.0860,0.1391,0.7195,-0.6031,-0.4993,0.7246,-0.8594,0.3196,-0.2461,25.25703333,83.00788500,0.28824446,
4.1460,-0.0860,0.1391,0.7195,-0.6031,-0.4993,0.7246,-0.2030,0.3383,-0.9516,25.25703333,83.00788500,0.28824446,
4.1590,-0.0860,0.1391,0.7195,-0.2083,-0.4447,-2.5024,-0.2030,0.3383,-0.9516,25.25703333,83.00788500,0.28824446,
4.1830,-0.0750,0.1191,0.7726,-0.2083,-0.4447,-2.5024,-0.2030,0.3383,-0.9516,25.25703333,83.00788500,0.28824446,
4.2070,-0.0750,0.1191,0.7726,-0.2083,-0.4447,-2.5024,-0.2257,0.1416,-0.5181,25.25703333,83.00788500,0.28824446,
4.2130,-0.0750,0.1191,0.7726,0.2645,-0.7147,-2.3891,-0.2257,0.1416,-0.5181,25.25703333,83.00788500,0.28824446,
4.2420,0.0119,0.1320,0.7635,0.2645,-0.7147,-2.3891,-0.2257,0.1416,-0.5181,25.25703333,83.00788500,0.28824446,
4.2740,0.0119,0.1320,0.7635,0.2645,-0.7147,-2.3891,-0.1167,-0.2356,0.9180,25.25703333,83.00788500,0.28824446,
4.2760,0.0119,0.1320,0.7635,0.5168,-0.1299,-1.7388,-0.1167,-0.2356,0.9180,25.25703333,83.00788500,0.28824446,
4.3090,-0.1510,0.2861,0.8526,0.5168,-0.1299,-1.7388,-0.1167,-0.2356,0.9180,25.25703333,83.00788500,0.28824446,
4.3450,-0.1510,0.2861,0.8526,0.5168,-0.1299,-1.7388,0.9806,0.3016,-1.4766,25.25703333,83.00788500,0.28824446,
4.3480,-0.1510,0.2861,0.8526,-0.8078,0.6006,-0.8383,0.9806,0.3016,-1.4766,25.25703333,83.00788500,0.28824446,
4.3750,-0.1820,0.2491,0.8926,-0.8078,0.6006,-0.8383,0.9806,0.3016,-1.4766,25.25703333,83.00788500,0.28824446,
4.4050,-0.1820,0.2491,0.8926,-0.8078,0.6006,-0.8383,0.4985,0.3461,-1.5628,25.25703333,83.00788500,0.28824446,
4.4090,-0.1820,0.2491,0.8926,-0.3061,-0.3556,-0.6230,0.4985,0.3461,-1.5628,25.25703333,83.00788500,0.28824446,
4.4420,-0.1250,0.1801,0.9656,-0.3061,-0.3556,-0.6230,0.4985,0.3461,-1.5628,25.25703333,83.00788500,0.28824446,
4.4730,-0.1250,0.1801,0.9656,-0.3061,-0.3556,-0.6230,-0.3355,0.0086,-0.2299,25.25703333,83.00788500,0.28824446,
4.4760,-0.1250,0.1801,0.9656,0.1864,-0.3022,0.5611,-0.3355,0.0086,-0.2299,25.25703333,83.00788500,0.28824446,
4.5160,-0.1651,0.2661,0.9236,0.1864,-0.3022,0.5611,-0.3355,0.0086,-0.2299,25.25703333,83.00788500,0.28824446,
4.5460,-0.1651,0.2661,0.9236,0.1864,-0.3022,0.5611,-0.0290,0.0571,-0.2278,25.25703333,83.00788500,0.28824446,
4.5480,-0.1651,0.2661,0.9236,-0.8858,-0.0026,1.4460,-0.0290,0.0571,-0.2278,25.25703333,83.00788500,0.28824446,
4.5760,-0.1341,0.0940,1.6632,-0.8858,-0.0026,1.4460,-0.0290,0.0571,-0.2278,25.25703333,83.00788500,0.28824446,
4.6070,-0.1341,0.0940,1.6632,-0.8858,-0.0026,1.4460,-1.2642,-0.3722,1.3098,25.25703333,83.00788500,0.28824446,
4.6160,-0.1341,0.0940,1.6632,1.2417,-0.6992,3.7572,-1.2642,-0.3722,1.3098,25.25703333,83.00788500,0.28824446,
4.6380,0.1170,0.2001,0.8415,1.2417,-0.6992,3.7572,-1.2642,-0.3722,1.3098,25.25703333,83.00788500,0.28824446,
4.6690,0.1170,0.2001,0.8415,1.2417,-0.6992,3.7572,0.0115,-0.7517,2.7040,25.25703333,83.00788500,0.28824446,
4.6720,0.1170,0.2001,0.8415,1.1458,1.0406,-1.5241,0.0115,-0.7517,2.7040,25.25703333,83.00788500,0.28824446,
4.7040,-0.1341,0.3872,0.8876,1.1458,1.0406,-1.5241,0.0115,-0.7517,2.7040,25.25703333,83.00788500,0.28824446,
4.7370,-0.1341,0.3872,0.8876,1.1458,1.0406,-1.5241,1.5100,0.2324,-1.1747,25.25703333,83.00788500,0.28824446,
4.7400,-0.1341,0.3872,0.8876,-1.2732,1.1971,-0.8490,1.5100,0.2324,-1.1747,25.25703333,83.00788500,0.28824446,
4.7720,-0.1090,0.3021,0.9026,-1.2732,1.1971,-0.8490,1.5100,0.2324,-1.1747,25.25703333,83.00788500,0.28824446,
4.8030,-0.1090,0.3021,0.9026,-1.2732,1.1971,-0.8490,0.7934,0.2273,-0.8010,25.25703333,83.00788500,0.28824446,
4.8090,-0.1090,0.3021,0.9026,0.2810,-0.3480,-0.7780,0.7934,0.2273,-0.8010,25.25703333,83.00788500,0.28824446,
4.8370,-0.0440,0.2411,0.8365,0.2810,-0.3480,-0.7780,0.7934,0.2273,-0.8010,25.25703333,83.00788500,0.28824446,
4.8680,-0.0440,0.2411,0.8365,0.2810,-0.3480,-0.7780,-0.1426,-0.1161,0.4874,25.25703333,83.00788500,0.28824446,
4.8750,-0.0440,0.2411,0.8365,0.5419,-0.7195,-0.7918,-0.1426,-0.1161,0.4874,25.25703333,83.00788500,0.28824446,
4.9060,-0.0040,0.2191,1.0097,0.5419,-0.7195,-0.7918,-0.1426,-0.1161,0.4874,25.25703333,83.00788500,0.28824446,
4.9370,-0.0040,0.2191,1.0097,0.5419,-0.7195,-0.7918,-0.7119,-0.2765,1.2228,25.25703333,83.00788500,0.28824446,
4.9420,-0.0040,0.2191,1.0097,0.8824,-0.3468,0.7294,-0.7119,-0.2765,1.2228,25.25703333,83.00788500,0.28824446,
4.9680,-0.0069,0.2992,1.0007,0.8824,-0.3468,0.7294,-0.7119,-0.2765,1.2228,25.25703333,83.00788500,0.28824446,
5.0000,-0.0069,0.2992,1.0007,0.8824,-0.3468,0.7294,0.4391,0.0020,-0.0913,25.25703333,83.00788500,0.28824446,
5.0040,-0.0069,0.2992,1.0007,-1.0213,1.5863,0.1853,0.4391,0.0020,-0.0913,25.25703333,83.00788500,0.28824446,
5.0370,-0.0350,0.3783,1.0957,-1.0213,1.5863,0.1853,0.4391,0.0020,-0.0913,25.25703333,83.00788500,0.28824446,
5.0660,-0.0350,0.3783,1.0957,-1.0213,1.5863,0.1853,0.5598,0.0179,-0.1236,25.25703333,83.00788500,0.28824446,
5.0720,-0.0350,0.3783,1.0957,1.2370,0.6932,0.7490,0.5598,0.0179,-0.1236,25.25703333,83.00788500,0.28824446,
5.1020,0.0410,0.4763,0.9666,1.2370,0.6932,0.7490,0.5598,0.0179,-0.1236,25.25703333,83.00788500,0.28824446,
5.1360,0.0410,0.4763,0.9666,1.2370,0.6932,0.7490,0.4098,-0.2215,0.5201,25.25703333,83.00788500,0.28824446,
5.1410,0.0410,0.4763,0.9666,-0.0175,-0.3878,4.3381,0.4098,-0.2215,0.5201,25.25703333,83.00788500,0.28824446,
5.1660,0.0460,0.2792,1.2708,-0.0175,-0.3878,4.3381,0.4098,-0.2215,0.5201,25.25703333,83.00788500,0.28824446,
5.1970,0.0460,0.2792,1.2708,-0.0175,-0.3878,4.3381,-0.4444,0.0000,0.3988,25.25703333,83.00788500,0.28824446,
5.2020,0.0460,0.2792,1.2708,-0.2731,0.4618,-0.1576,-0.4444,0.0000,0.3988,25.25703333,83.00788500,0.28824446,
5.2330,-0.0319,0.3082,0.8565,-0.2731,0.4618,-0.1576,-0.4444,0.0000,0.3988,25.25703333,83.00788500,0.28824446,
5.2660,-0.0319,0.3082,0.8565,-0.2731,0.4618,-0.1576,0.1105,0.0982,-0.3301,25.25703333,83.00788500,0.28824446,
5.2720,-0.0319,0.3082,0.8565,-0.6735,-0.2950,-0.5586,0.1105,0.0982,-0.3301,25.25703333,83.00788500,0.28824446,
5.2990,-0.0519,0.2411,0.7595,-0.6735,-0.2950,-0.5586,0.1105,0.0982,-0.3301,25.25703333,83.00788500,0.28824446,
5.3350,-0.0519,0.2411,0.7595,-0.6735,-0.2950,-0.5586,-0.0185,0.1721,-0.5428,25.25703333,83.00788500,0.28824446,
5.3380,-0.0519,0.2411,0.7595,-0.1583,-0.7300,-3.2278,-0.0185,0.1721,-0.5428,25.25703333,83.00788500,0.28824446,
5.3650,-0.0860,0.2701,0.6644,-0.1583,-0.7300,-3.2278,-0.0185,0.1721,-0.5428,25.25703333,83.00788500,0.28824446,
5.3950,-0.0860,0.2701,0.6644,-0.1583,-0.7300,-3.2278,0.3239,0.2161,-1.0143,25.25703333,83.00788500,0.28824446,
5.3980,-0.0860,0.2701,0.6644,-0.3832,-0.2017,-1.0676,0.3239,0.2161,-1.0143,25.25703333,83.00788500,0.28824446,
5.4320,-0.0860,0.3061,0.8405,-0.3832,-0.2017,-1.0676,0.3239,0.2161,-1.0143,25.25703333,83.00788500,0.28824446,
5.4620,-0.0860,0.3061,0.8405,-0.3832,-0.2017,-1.0676,0.1816,0.1270,-0.6588,25.25703333,83.00788500,0.28824446,
5.4660,-0.0860,0.3061,0.8405,-0.2169,-0.3658,-0.5624,0.1816,0.1270,-0.6588,25.25703333,83.00788500,0.28824446,
5.4980,-0.1520,0.3402,0.8155,-0.2169,-0.3658,-0.5624,0.1816,0.1270,-0.6588,25.25703333,83.00788500,0.28824446,
5.5290,-0.1520,0.3402,0.8155,-0.2169,-0.3658,-0.5624,0.3019,0.1517,-0.9149,25.25703333,83.00788500,0.28824446,
5.5330,-0.1520,0.3402,0.8155,-0.1865,-0.2581,-0.8969,0.3019,0.1517,-0.9149,25.25703333,83.00788500,0.28824446,
5.5650,-0.1320,0.2982,0.9177,-0.1865,-0.2581,-0.8969,0.3019,0.1517,-0.9149,25.25703333,83.00788500,0.28824446,
5.6030,-0.1320,0.2982,0.9177,-0.1865,-0.2581,-0.8969,-0.0029,0.0284,-0.2086,25.25703333,83.00788500,0.28824446,
5.6060,-0.1320,0.2982,0.9177,0.1588,0.5049,-0.8348,-0.0029,0.0284,-0.2086,25.25703333,83.00788500,0.28824446,
5.6280,-0.1770,0.4222,0.7985,0.1588,0.5049,-0.8348,-0.0029,0.0284,-0.2086,25.25703333,83.00788500,0.28824446,
5.6590,-0.1770,0.4222,0.7985,0.1588,0.5049,-0.8348,0.4061,0.1783,-0.5979,25.25703667,83.00790167,0.41435140,
5.6610,-0.1770,0.4222,0.7985,-0.8777,-0.0276,0.9809,0.4061,0.1783,-0.5979,25.25703667,83.00790167,0.41435140,
5.6960,-0.2651,0.2851,1.0567,-0.8777,-0.0276,0.9809,0.4061,0.1783,-0.5979,25.25703667,83.00790167,0.41435140,
5.7260,-0.2651,0.2851,1.0567,-0.8777,-0.0276,0.9809,-0.1670,0.3125,-1.3541,25.25703667,83.00790167,0.41435140,
5.7290,-0.2651,0.2851,1.0567,-1.0784,0.4116,-2.6360,-0.1670,0.3125,-1.3541,25.25703667,83.00790167,0.41435140,
5.7610,-0.2391,0.2571,0.9696,-1.0784,0.4116,-2.6360,-0.1670,0.3125,-1.3541,25.25703667,83.00790167,0.41435140,
5.7910,-0.2391,0.2571,0.9696,-1.0784,0.4116,-2.6360,-0.0174,0.2334,-0.9036,25.25703667,83.00790167,0.41435140,
5.7940,-0.2391,0.2571,0.9696,0.6349,-1.3488,3.0401,-0.0174,0.2334,-0.9036,25.25703667,83.00790167,0.41435140,
5.8260,-0.1720,0.2311,0.9856,0.6349,-1.3488,3.0401,-0.0174,0.2334,-0.9036,25.25703667,83.00790167,0.41435140,
5.8570,-0.1720,0.2311,0.9856,0.6349,-1.3488,3.0401,-0.6782,-0.1709,0.6030,25.25703667,83.00790167,0.41435140,
5.8600,-0.1720,0.2311,0.9856,0.1508,0.1580,-0.6626,-0.6782,-0.1709,0.6030,25.25703667,83.00790167,0.41435140,
5.8920,-0.0469,0.2832,0.8596,0.1508,0.1580,-0.6626,-0.6782,-0.1709,0.6030,25.25703667,83.00790167,0.41435140,
5.9240,-0.0469,0.2832,0.8596,0.1508,0.1580,-0.6626,-0.0585,-0.3826,1.8863,25.25703667,83.00790167,0.41435140,
5.9270,-0.0469,0.2832,0.8596,1.5237,0.0505,0.0357,-0.0585,-0.3826,1.8863,25.25703667,83.00790167,0.41435140,
5.9580,-0.0030,0.3332,0.9947,1.5237,0.0505,0.0357,-0.0585,-0.3826,1.8863,25.25703667,83.00790167,0.41435140,
5.9890,-0.0030,0.3332,0.9947,1.5237,0.0505,0.0357,0.0085,-0.5321,2.1786,25.25703667,83.00790167,0.41435140,
5.9910,-0.0030,0.3332,0.9947,0.7537,0.6420,0.0097,0.0085,-0.5321,2.1786,25.25703667,83.00790167,0.41435140,
6.0280,0.0780,0.3282,0.9406,0.7537,0.6420,0.0097,0.0085,-0.5321,2.1786,25.25703667,83.00790167,0.41435140,
6.0560,0.0780,0.3282,0.9406,0.7537,0.6420,0.0097,0.1676,-0.5706,1.8495,25.25703667,83.00790167,0.41435140,
6.0620,0.0780,0.3282,0.9406,1.8155,-0.0692,0.6661,0.1676,-0.5706,1.8495,25.25703667,83.00790167,0.41435140,
6.0930,0.1570,0.3252,1.0107,1.8155,-0.0692,0.6661,0.1676,-0.5706,1.8495,25.25703667,83.00790167,0.41435140,
6.1270,0.1570,0.3252,1.0107,1.8155,-0.0692,0.6661,0.1522,-0.6653,1.6612,25.25703667,83.00790167,0.41435140,
6.1320,0.1570,0.3252,1.0107,0.2339,0.6382,-1.1304,0.1522,-0.6653,1.6612,25.25703667,83.00790167,0.41435140,
6.1560,0.0940,0.3582,1.2088,0.2339,0.6382,-1.1304,0.1522,-0.6653,1.6612,25.25703667,83.00790167,0.41435140,
6.1870,0.0940,0.3582,1.2088,0.2339,0.6382,-1.1304,-0.1905,-0.0978,0.3395,25.25703667,83.00790167,0.41435140,
6.1950,0.0940,0.3582,1.2088,0.3069,0.1145,4.5195,-0.1905,-0.0978,0.3395,25.25703667,83.00790167,0.41435140,
6.2320,0.1460,0.1931,1.5460,0.3069,0.1145,4.5195,-0.1905,-0.0978,0.3395,25.25703667,83.00790167,0.41435140,
6.2610,0.1460,0.1931,1.5460,0.3069,0.1145,4.5195,-1.3174,0.1971,0.8105,25.25703667,83.00790167,0.41435140,
6.2630,0.1460,0.1931,1.5460,0.0233,-0.9647,4.4920,-1.3174,0.1971,0.8105,25.25703667,83.00790167,0.41435140,
6.2890,-0.0740,0.2301,1.0888,0.0233,-0.9647,4.4920,-1.3174,0.1971,0.8105,25.25703667,83.00790167,0.41435140,
6.3220,-0.0740,0.2301,1.0888,0.0233,-0.9647,4.4920,-0.4121,0.6040,-1.1618,25.25703667,83.00790167,0.41435140,
6.3240,-0.0740,0.2301,1.0888,-1.2621,0.3341,-1.2464,-0.4121,0.6040,-1.1618,25.25703667,83.00790167,0.41435140,
6.3540,-0.0610,0.2011,0.9006,-1.2621,0.3341,-1.2464,-0.4121,0.6040,-1.1618,25.25703667,83.00790167,0.41435140,
6.3850,-0.0610,0.2011,0.9006,-1.2621,0.3341,-1.2464,0.0675,0.4408,-1.3609,25.25703667,83.00790167,0.41435140,
6.3870,-0.0610,0.2011,0.9006,-0.2668,-0.4934,-0.8667,0.0675,0.4408,-1.3609,25.25703667,83.00790167,0.41435140,
6.4200,-0.0519,0.1460,0.7776,-0.2668,-0.4934,-0.8667,0.0675,0.4408,-1.3609,25.25703667,83.00790167,0.41435140,
6.4510,-0.0519,0.1460,0.7776,-0.2668,-0.4934,-0.8667,-0.1375,0.2530,-0.7175,25.25703667,83.00790167,0.41435140,
6.4540,-0.0519,0.1460,0.7776,-0.2999,-0.4944,-1.4584,-0.1375,0.2530,-0.7175,25.25703667,83.00790167,0.41435140,
6.4940,-0.0390,0.1451,0.8236,-0.2999,-0.4944,-1.4584,-0.1375,0.2530,-0.7175,25.25703667,83.00790167,0.41435140,
6.5260,-0.0390,0.1451,0.8236,-0.2999,-0.4944,-1.4584,-0.2145,0.0718,-0.1916,25.25703667,83.00790167,0.41435140,
6.5350,-0.0390,0.1451,0.8236,-0.3421,-0.0818,-1.4265,-0.2145,0.0718,-0.1916,25.25703667,83.00790167,0.41435140,
6.5680,-0.1551,0.2061,0.8215,-0.3421,-0.0818,-1.4265,-0.2145,0.0718,-0.1916,25.25703667,83.00790167,0.41435140,
6.5880,-0.1551,0.2061,0.8215,-0.3421,-0.0818,-1.4265,0.3755,0.4427,-2.0473,25.25703667,83.00790167,0.41435140,
6.5910,-0.1551,0.2061,0.8215,-0.6049,-0.4008,-1.0647,0.3755,0.4427,-2.0473,25.25703667,83.00790167,0.41435140,
6.6200,-0.1470,0.1260,0.8706,-0.6049,-0.4008,-1.0647,0.3755,0.4427,-2.0473,25.25703667,83.00790167,0.41435140,
6.6490,-0.1470,0.1260,0.8706,-0.6049,-0.4008,-1.0647,-0.1188,0.2442,-1.4249,25.25703667,83.00790167,0.41435140,
6.6510,-0.1470,0.1260,0.8706,-0.0318,-0.4576,-1.6731,-0.1188,0.2442,-1.4249,25.25704000,83.00791333,0.48950082,
6.6840,-0.1451,0.1701,0.8576,-0.0318,-0.4576,-1.6731,-0.1188,0.2442,-1.4249,25.25704000,83.00791333,0.48950082,
6.7170,-0.1451,0.1701,0.8576,-0.0318,-0.4576,-1.6731,0.0009,0.0222,-0.2274,25.25704000,83.00791333,0.48950082,
6.7220,-0.1451,0.1701,0.8576,0.4935,-0.1597,-0.5311,0.0009,0.0222,-0.2274,25.25704000,83.00791333,0.48950082,
6.7510,-0.1551,0.2361,0.9386,0.4935,-0.1597,-0.5311,0.0009,0.0222,-0.2274,25.25704000,83.00791333,0.48950082,
6.7820,-0.1551,0.2361,0.9386,0.4935,-0.1597,-0.5311,0.4915,0.1385,-0.3856,25.25704000,83.00791333,0.48950082,
6.7840,-0.1551,0.2361,0.9386,-0.8137,0.8481,-0.3131,0.4915,0.1385,-0.3856,25.25704000,83.00791333,0.48950082,
6.8160,-0.2111,0.1920,1.2979,-0.8137,0.8481,-0.3131,0.4915,0.1385,-0.3856,25.25704000,83.00791333,0.48950082,
6.8470,-0.2111,0.1920,1.2979,-0.8137,0.8481,-0.3131,-0.2622,0.0341,-0.0289,25.25704000,83.00791333,0.48950082,
6.8510,-0.2111,0.1920,1.2979,0.1390,-0.0952,2.0298,-0.2622,0.0341,-0.0289,25.25704000,83.00791333,0.48950082,
6.8820,-0.1410,0.2432,1.0377,0.1390,-0.0952,2.0298,-0.2622,0.0341,-0.0289,25.25704000,83.00791333,0.48950082,
6.9160,-0.1410,0.2432,1.0377,0.1390,-0.0952,2.0298,0.0224,-0.0974,0.7267,25.25704000,83.00791333,0.48950082,
6.9200,-0.1410,0.2432,1.0377,0.1494,0.6229,-0.0484,0.0224,-0.0974,0.7267,25.25704000,83.00791333,0.48950082,
6.9490,-0.1520,0.2842,0.9556,0.1494,0.6229,-0.0484,0.0224,-0.0974,0.7267,25.25704000,83.00791333,0.48950082,
6.9800,-0.1520,0.2842,0.9556,0.1494,0.6229,-0.0484,0.4928,0.0007,0.4865,25.25704000,83.00791333,0.48950082,
6.9840,-0.1520,0.2842,0.9556,0.2032,0.5279,-0.4644,0.4928,0.0007,0.4865,25.25704000,83.00791333,0.48950082,
7.0140,-0.1010,0.2932,0.8815,0.2032,0.5279,-0.4644,0.4928,0.0007,0.4865,25.25704000,83.00791333,0.48950082,
7.0460,-0.1010,0.2932,0.8815,0.2032,0.5279,-0.4644,0.5740,-0.0617,0.6728,25.25704000,83.00791333,0.48950082,
7.0480,-0.1010,0.2932,0.8815,0.4282,0.4801,-0.9944,0.5740,-0.0617,0.6728,25.25704000,83.00791333,0.48950082,
7.0820,-0.0300,0.3002,0.8615,0.4282,0.4801,-0.9944,0.5740,-0.0617,0.6728,25.25704000,83.00791333,0.48950082,
7.1160,-0.0300,0.3002,0.8615,0.4282,0.4801,-0.9944,0.3330,-0.2585,1.1606,25.25704000,83.00791333,0.48950082,
7.1210,-0.0300,0.3002,0.8615,0.9547,-0.2705,-0.4790,0.3330,-0.2585,1.1606,25.25704000,83.00791333,0.48950082,
7.1460,0.0400,0.2661,1.0257,0.9547,-0.2705,-0.4790,0.3330,-0.2585,1.1606,25.25704000,83.00791333,0.48950082,
7.1790,0.0400,0.2661,1.0257,0.9547,-0.2705,-0.4790,-0.3306,-0.4611,1.7368,25.25704000,83.00791333,0.48950082,
7.1830,0.0400,0.2661,1.0257,0.8437,-0.0988,1.1498,-0.3306,-0.4611,1.7368,25.25704000,83.00791333,0.48950082,
7.2120,0.0770,0.3362,1.0457,0.8437,-0.0988,1.1498,-0.3306,-0.4611,1.7368,25.25704000,83.00791333,0.48950082,
7.2440,0.0770,0.3362,1.0457,0.8437,-0.0988,1.1498,-0.0369,-0.4178,1.3740,25.25704000,83.00791333,0.48950082,
7.2460,0.0770,0.3362,1.0457,0.6829,0.3760,1.2194,-0.0369,-0.4178,1.3740,25.25704000,83.00791333,0.48950082,
7.2790,0.0990,0.4312,1.0066,0.6829,0.3760,1.2194,-0.0369,-0.4178,1.3740,25.25704000,83.00791333,0.48950082,
7.3140,0.0990,0.4312,1.0066,0.6829,0.3760,1.2194,0.4727,-0.3293,0.6094,25.25704000,83.00791333,0.48950082,
7.3160,0.0990,0.4312,1.0066,0.2995,1.3268,0.5412,0.4727,-0.3293,0.6094,25.25704000,83.00791333,0.48950082,
7.3450,0.0159,0.2601,1.4931,0.2995,1.3268,0.5412,0.4727,-0.3293,0.6094,25.25704000,83.00791333,0.48950082,
7.3760,0.0159,0.2601,1.4931,0.2995,1.3268,0.5412,-0.8114,0.2780,-0.0409,25.25704000,83.00791333,0.48950082,
7.3820,0.0159,0.2601,1.4931,-0.6969,-0.3394,4.0980,-0.8114,0.2780,-0.0409,25.25704000,83.00791333,0.48950082,
7.4120,-0.0881,0.2751,1.1248,-0.6969,-0.3394,4.0980,-0.8114,0.2780,-0.0409,25.25704000,83.00791333,0.48950082,
7.4500,-0.0881,0.2751,1.1248,-0.6969,-0.3394,4.0980,-0.4180,0.4598,-0.9736,25.25704000,83.00791333,0.48950082,
7.4540,-0.0881,0.2751,1.1248,-0.8215,0.1088,0.9001,-0.4180,0.4598,-0.9736,25.25704000,83.00791333,0.48950082,
7.4760,-0.1191,0.1911,0.9166,-0.8215,0.1088,0.9001,-0.4180,0.4598,-0.9736,25.25704000,83.00791333,0.48950082,
7.5090,-0.1191,0.1911,0.9166,-0.8215,0.1088,0.9001,-0.2488,0.4289,-1.2574,25.25704000,83.00791333,0.48950082,
7.5170,-0.1191,0.1911,0.9166,-0.5653,-0.7934,-1.3260,-0.2488,0.4289,-1.2574,25.25704000,83.00791333,0.48950082,
7.5430,-0.0881,0.1191,0.7004,-0.5653,-0.7934,-1.3260,-0.2488,0.4289,-1.2574,25.25704000,83.00791333,0.48950082,
7.5730,-0.0881,0.1191,0.7004,-0.5653,-0.7934,-1.3260,-0.2961,0.2831,-1.0303,25.25704000,83.00791333,0.48950082,
7.5760,-0.0881,0.1191,0.7004,-0.2138,-0.7634,-2.3232,-0.2961,0.2831,-1.0303,25.25704000,83.00791333,0.48950082,
7.6080,-0.0900,0.1431,0.7345,-0.2138,-0.7634,-2.3232,-0.2961,0.2831,-1.0303,25.25704000,83.00791333,0.48950082,
7.6390,-0.0900,0.1431,0.7345,-0.2138,-0.7634,-2.3232,-0.0610,0.1493,-0.7199,25.25704167,83.00792833,0.56053251,
7.6410,-0.0900,0.1431,0.7345,0.1890,-0.2132,-1.8570,-0.0610,0.1493,-0.7199,25.25704167,83.00792833,0.56053251,
7.6740,-0.0850,0.1651,0.8926,0.1890,-0.2132,-1.8570,-0.0610,0.1493,-0.7199,25.25704167,83.00792833,0.56053251,
7.7090,-0.0850,0.1651,0.8926,0.1890,-0.2132,-1.8570,-0.0469,0.0089,-0.3548,25.25704167,83.00792833,0.56053251,
7.7120,-0.0850,0.1651,0.8926,-0.1862,-0.1233,0.5204,-0.0469,0.0089,-0.3548,25.25704167,83.00792833,0.56053251,
7.7410,-0.0981,0.2021,0.8826,-0.1862,-0.1233,0.5204,-0.0469,0.0089,-0.3548,25.25704167,83.00792833,0.56053251,
7.7710,-0.0981,0.2021,0.8826,-0.1862,-0.1233,0.5204,0.2956,0.0245,-0.3504,25.25704167,83.00792833,0.56053251,
7.7740,-0.0981,0.2021,0.8826,-0.1240,0.4152,-1.1705,0.2956,0.0245,-0.3504,25.25704167,83.00792833,0.56053251,
7.8070,-0.1300,0.3102,0.9696,-0.1240,0.4152,-1.1705,0.2956,0.0245,-0.3504,25.25704167,83.00792833,0.56053251,
7.8370,-0.1300,0.3102,0.9696,-0.1240,0.4152,-1.1705,0.9232,0.0641,-0.2758,25.25704167,83.00792833,0.56053251,
7.8430,-0.1300,0.3102,0.9696,0.0179,1.1251,-0.3950,0.9232,0.0641,-0.2758,25.25704167,83.00792833,0.56053251,
7.8730,-0.1501,0.3872,0.9056,0.0179,1.1251,-0.3950,0.9232,0.0641,-0.2758,25.25704167,83.00792833,0.56053251,
7.9080,-0.1501,0.3872,0.9056,0.0179,1.1251,-0.3950,0.7378,0.1160,-0.2844,25.25704167,83.00792833,0.56053251,
7.9120,-0.1501,0.3872,0.9056,-0.2538,-0.2177,3.9058,0.7378,0.1160,-0.2844,25.25704167,83.00792833,0.56053251,
7.9380,-0.0390,0.2751,1.1228,-0.2538,-0.2177,3.9058,0.7378,0.1160,-0.2844,25.25704167,83.00792833,0.56053251,
7.9700,-0.0390,0.2751,1.1228,-0.2538,-0.2177,3.9058,-0.4487,-0.2132,0.9688,25.25704167,83.00792833,0.56053251,
7.9780,-0.0390,0.2751,1.1228,0.4814,0.4099,0.4782,-0.4487,-0.2132,0.9688,25.25704167,83.00792833,0.56053251,
8.0050,-0.0900,0.3432,0.9016,0.4814,0.4099,0.4782,-0.4487,-0.2132,0.9688,25.25704167,83.00792833,0.56053251,
8.0350,-0.0900,0.3432,0.9016,0.4814,0.4099,0.4782,0.5388,-0.0194,0.2232,25.25704167,83.00792833,0.56053251,
8.0380,-0.0900,0.3432,0.9016,-0.2243,0.7889,-0.9756,0.5388,-0.0194,0.2232,25.25704167,83.00792833,0.56053251,
8.0720,-0.1881,0.3972,0.8656,-0.2243,0.7889,-0.9756,0.5388,-0.0194,0.2232,25.25704167,83.00792833,0.56053251,
8.1050,-0.1881,0.3972,0.8656,-0.2243,0.7889,-0.9756,0.8708,0.2835,-0.6912,25.25704167,83.00792833,0.56053251,
8.1080,-0.1881,0.3972,0.8656,0.1076,0.1994,-0.8528,0.8708,0.2835,-0.6912,25.25704167,83.00792833,0.56053251,
8.1360,-0.0940,0.3722,0.8176,0.1076,0.1994,-0.8528,0.8708,0.2835,-0.6912,25.25704167,83.00792833,0.56053251,
8.1670,-0.0940,0.3722,0.8176,0.1076,0.1994,-0.8528,0.4885,-0.0090,0.4086,25.25704167,83.00792833,0.56053251,
8.1720,-0.0940,0.3722,0.8176,0.7427,0.0515,-0.3282,0.4885,-0.0090,0.4086,25.25704167,83.00792833,0.56053251,
8.2050,-0.0419,0.3872,0.8706,0.7427,0.0515,-0.3282,0.4885,-0.0090,0.4086,25.25704167,83.00792833,0.56053251,
8.2340,-0.0419,0.3872,0.8706,0.7427,0.0515,-0.3282,0.2146,-0.1498,0.8654,25.25704167,83.00792833,0.56053251,
8.2370,-0.0419,0.3872,0.8706,0.1965,0.3354,-0.5137,0.2146,-0.1498,0.8654,25.25704167,83.00792833,0.56053251,
8.2680,-0.0230,0.4853,0.9046,0.1965,0.3354,-0.5137,0.2146,-0.1498,0.8654,25.25704167,83.00792833,0.56053251,
8.3040,-0.0230,0.4853,0.9046,0.1965,0.3354,-0.5137,0.4619,-0.1539,0.9247,25.25704167,83.00792833,0.56053251,
8.3070,-0.0230,0.4853,0.9046,0.6258,0.7677,0.2402,0.4619,-0.1539,0.9247,25.25704167,83.00792833,0.56053251,
8.3340,-0.0369,0.5243,0.8576,0.6258,0.7677,0.2402,0.4619,-0.1539,0.9247,25.25704167,83.00792833,0.56053251,
8.3650,-0.0369,0.5243,0.8576,0.6258,0.7677,0.2402,0.5894,0.1535,-0.2616,25.25704167,83.00792833,0.56053251,
8.3680,-0.0369,0.5243,0.8576,-1.5440,1.3138,1.0670,0.5894,0.1535,-0.2616,25.25704167,83.00792833,0.56053251,
8.4010,-0.1751,0.5804,0.8296,-1.5440,1.3138,1.0670,0.5894,0.1535,-0.2616,25.25704167,83.00792833,0.56053251,
8.4310,-0.1751,0.5804,0.8296,-1.5440,1.3138,1.0670,0.6710,0.2825,-1.0317,25.25704167,83.00792833,0.56053251,
8.4360,-0.1751,0.5804,0.8296,-0.7679,-0.1266,0.5677,0.6710,0.2825,-1.0317,25.25704167,83.00792833,0.56053251,
8.4660,-0.0480,0.3152,1.1257,-0.7679,-0.1266,0.5677,0.6710,0.2825,-1.0317,25.25704167,83.00792833,0.56053251,
8.5040,-0.0480,0.3152,1.1257,-0.7679,-0.1266,0.5677,-1.2339,-0.0321,0.1123,25.25704167,83.00792833,0.56053251,
8.5090,-0.0480,0.3152,1.1257,0.1839,-0.6379,-1.7248,-1.2339,-0.0321,0.1123,25.25704167,83.00792833,0.56053251,
8.5320,-0.1370,0.4043,0.6204,0.1839,-0.6379,-1.7248,-1.2339,-0.0321,0.1123,25.25704167,83.00792833,0.56053251,
8.5680,-0.1370,0.4043,0.6204,0.1839,-0.6379,-1.7248,0.0955,0.0312,-0.4768,25.25704167,83.00792833,0.56053251,
8.5700,-0.1370,0.4043,0.6204,-0.1999,-0.5161,-1.1018,0.0955,0.0312,-0.4768,25.25704167,83.00792833,0.56053251,
8.5980,-0.1140,0.2371,0.9766,-0.1999,-0.5161,-1.1018,0.0955,0.0312,-0.4768,25.25704167,83.00792833,0.56053251,
8.6290,-0.1140,0.2371,0.9766,-0.1999,-0.5161,-1.1018,-1.4162,-0.0979,0.0793,25.25704333,83.00794167,0.64288807,
8.6310,-0.1140,0.2371,0.9766,0.5328,-1.6437,-0.4689,-1.4162,-0.0979,0.0793,25.25704333,83.00794167,0.64288807,
8.6640,-0.0940,0.2341,0.8486,0.5328,-1.6437,-0.4689,-1.4162,-0.0979,0.0793,25.25704333,83.00794167,0.64288807,
8.6960,-0.0940,0.2341,0.8486,0.5328,-1.6437,-0.4689,-0.8932,-0.0401,0.0682,25.25704333,83.00794167,0.64288807,
8.6990,-0.0940,0.2341,0.8486,-0.1694,-0.5127,0.4906,-0.8932,-0.0401,0.0682,25.25704333,83.00794167,0.64288807,
8.7310,-0.1341,0.2161,0.8736,-0.1694,-0.5127,0.4906,-0.8932,-0.0401,0.0682,25.25704333,83.00794167,0.64288807,
8.7620,-0.1341,0.2161,0.8736,-0.1694,-0.5127,0.4906,-0.2439,0.1325,-0.5950,25.25704333,83.00794167,0.64288807,
8.7640,-0.1341,0.2161,0.8736,-0.2913,-0.0651,-2.1736,-0.2439,0.1325,-0.5950,25.25704333,83.00794167,0.64288807,
8.7960,-0.1581,0.2351,0.7695,-0.2913,-0.0651,-2.1736,-0.2439,0.1325,-0.5950,25.25704333,83.00794167,0.64288807,
8.8270,-0.1581,0.2351,0.7695,-0.2913,-0.0651,-2.1736,0.2677,0.2451,-1.0420,25.25704333,83.00794167,0.64288807,
8.8330,-0.1581,0.2351,0.7695,-0.3542,0.0245,-0.4021,0.2677,0.2451,-1.0420,25.25704333,83.00794167,0.64288807,
8.8630,-0.2601,0.3092,0.9327,-0.3542,0.0245,-0.4021,0.2677,0.2451,-1.0420,25.25704333,83.00794167,0.64288807,
8.8980,-0.2601,0.3092,0.9327,-0.3542,0.0245,-0.4021,0.4201,0.3482,-1.0111,25.25704333,83.00794167,0.64288807,
8.9020,-0.2601,0.3092,0.9327,-0.5781,0.5279,1.2727,0.4201,0.3482,-1.0111,25.25704333,83.00794167,0.64288807,
8.9310,-0.1731,0.3092,0.8776,-0.5781,0.5279,1.2727,0.4201,0.3482,-1.0111,25.25704333,83.00794167,0.64288807,
8.9600,-0.1731,0.3092,0.8776,-0.5781,0.5279,1.2727,0.2453,0.0842,0.0449,25.25704333,83.00794167,0.64288807,
8.9650,-0.1731,0.3092,0.8776,0.0064,0.1663,-0.4174,0.2453,0.0842,0.0449,25.25704333,83.00794167,0.64288807,
8.9950,-0.4133,0.3142,1.3480,0.0064,0.1663,-0.4174,0.2453,0.0842,0.0449,25.25704333,83.00794167,0.64288807,
9.0250,-0.4133,0.3142,1.3480,0.0064,0.1663,-0.4174,-0.6362,0.1362,-0.5839,25.25704333,83.00794167,0.64288807,
9.0290,-0.4133,0.3142,1.3480,0.0054,-0.4079,4.2701,-0.6362,0.1362,-0.5839,25.25704333,83.00794167,0.64288807,
9.0620,-0.0469,0.1501,1.0116,0.0054,-0.4079,4.2701,-0.6362,0.1362,-0.5839,25.25704333,83.00794167,0.64288807,
9.0960,-0.0469,0.1501,1.0116,0.0054,-0.4079,4.2701,-1.1255,-0.4392,1.6600,25.25704333,83.00794167,0.64288807,
9.1010,-0.0469,0.1501,1.0116,1.0798,-0.6489,0.3164,-1.1255,-0.4392,1.6600,25.25704333,83.00794167,0.64288807,
9.1270,-0.2942,0.2391,0.8636,1.0798,-0.6489,0.3164,-1.1255,-0.4392,1.6600,25.25704333,83.00794167,0.64288807,
9.1570,-0.2942,0.2391,0.8636,1.0798,-0.6489,0.3164,0.5104,0.4513,-1.3126,25.25704333,83.00794167,0.64288807,
9.1640,-0.2942,0.2391,0.8636,-1.9478,0.9988,-1.5961,0.5104,0.4513,-1.3126,25.25704333,83.00794167,0.64288807,
9.1920,-0.3212,0.3492,0.8245,-1.9478,0.9988,-1.5961,0.5104,0.4513,-1.3126,25.25704333,83.00794167,0.64288807,
9.2240,-0.3212,0.3492,0.8245,-1.9478,0.9988,-1.5961,1.1817,0.5732,-1.0375,25.25704333,83.00794167,0.64288807,
9.2280,-0.3212,0.3492,0.8245,0.3361,0.5228,-0.5282,1.1817,0.5732,-1.0375,25.25704333,83.00794167,0.64288807,
9.2610,-0.1731,0.3472,0.9136,0.3361,0.5228,-0.5282,1.1817,0.5732,-1.0375,25.25704333,83.00794167,0.64288807,
9.2950,-0.1731,0.3472,0.9136,0.3361,0.5228,-0.5282,0.4094,-0.1702,1.1564,25.25704333,83.00794167,0.64288807,
9.2990,-0.1731,0.3472,0.9136,0.8591,0.4734,-0.0499,0.4094,-0.1702,1.1564,25.25704333,83.00794167,0.64288807,
9.3240,-0.1131,0.4202,0.8165,0.8591,0.4734,-0.0499,0.4094,-0.1702,1.1564,25.25704333,83.00794167,0.64288807,
9.3550,-0.1131,0.4202,0.8165,0.8591,0.4734,-0.0499,0.5547,-0.3111,1.4262,25.25704333,83.00794167,0.64288807,
9.3570,-0.1131,0.4202,0.8165,1.0593,0.4209,-0.6028,0.5547,-0.3111,1.4262,25.25704333,83.00794167,0.64288807,
9.3910,0.0900,0.3852,0.9366,1.0593,0.4209,-0.6028,0.5547,-0.3111,1.4262,25.25704333,83.00794167,0.64288807,
9.4220,0.0900,0.3852,0.9366,1.0593,0.4209,-0.6028,-0.1291,-0.8385,2.8123,25.25704333,83.00794167,0.64288807,
9.4260,0.0900,0.3852,0.9366,2.2599,-0.2192,0.1972,-0.1291,-0.8385,2.8123,25.25704333,83.00794167,0.64288807,
9.4560,0.1270,0.3582,1.1057,2.2599,-0.2192,0.1972,-0.1291,-0.8385,2.8123,25.25704333,83.00794167,0.64288807,
9.5040,0.1270,0.3582,1.1057,2.2599,-0.2192,0.1972,-0.4219,-0.6199,1.9243,25.25704333,83.00794167,0.64288807,
9.5060,0.1270,0.3582,1.1057,-1.3184,0.5482,5.3114,-0.4219,-0.6199,1.9243,25.25704333,83.00794167,0.64288807,
9.5270,-0.1291,0.3162,1.6592,-1.3184,0.5482,5.3114,-0.4219,-0.6199,1.9243,25.25704333,83.00794167,0.64288807,
9.5550,-0.1291,0.3162,1.6592,-1.3184,0.5482,5.3114,-1.2495,0.4215,-0.3884,25.25704333,83.00794167,0.64288807,
9.5580,-0.1291,0.3162,1.6592,-0.9605,-0.7920,6.6717,-1.2495,0.4215,-0.3884,25.25704333,83.00794167,0.64288807,
9.6060,-0.0890,0.2221,1.0707,-0.9605,-0.7920,6.6717,-1.2495,0.4215,-0.3884,25.25704333,83.00794167,0.64288807,
9.6220,-0.0890,0.2221,1.0707,-0.9605,-0.7920,6.6717,-0.6985,0.3622,-0.7498,25.25704333,83.00794167,0.64288807,
9.6230,-0.0890,0.2221,1.0707,-0.7531,-0.2660,-0.5017,-0.6985,0.3622,-0.7498,25.25704333,83.00794167,0.64288807,
9.6540,-0.1831,0.1991,0.8586,-0.7531,-0.2660,-0.5017,-0.6985,0.3622,-0.7498,25.25704333,83.00794167,0.64288807,
9.6860,-0.1831,0.1991,0.8586,-0.7531,-0.2660,-0.5017,-0.0614,0.4680,-1.6613,25.25704333,83.00795333,0.71494919,
9.6890,-0.1831,0.1991,0.8586,-0.4686,-0.5221,-2.1766,-0.0614,0.4680,-1.6613,25.25704333,83.00795333,0.71494919,
9.7200,-0.0169,0.0981,0.7155,-0.4686,-0.5221,-2.1766,-0.0614,0.4680,-1.6613,25.25704333,83.00795333,0.71494919,
9.7520,-0.0169,0.0981,0.7155,-0.4686,-0.5221,-2.1766,-0.5223,-0.0600,0.1880,25.25704333,83.00795333,0.71494919,
9.7540,-0.0169,0.0981,0.7155,0.5148,-0.9870,-1.5338,-0.5223,-0.0600,0.1880,25.25704333,83.00795333,0.71494919,
9.7860,-0.0469,0.1281,0.8606,0.5148,-0.9870,-1.5338,-0.5223,-0.0600,0.1880,25.25704333,83.00795333,0.71494919,
9.8170,-0.0469,0.1281,0.8606,0.5148,-0.9870,-1.5338,-0.3421,-0.1786,0.5021,25.25704333,83.00795333,0.71494919,
9.8190,-0.0469,0.1281,0.8606,0.4170,-0.1697,-1.7715,-0.3421,-0.1786,0.5021,25.25704333,83.00795333,0.71494919,
9.8530,-0.0250,0.1781,0.7685,0.4170,-0.1697,-1.7715,-0.3421,-0.1786,0.5021,25.25704333,83.00795333,0.71494919,
9.8880,-0.0250,0.1781,0.7685,0.4170,-0.1697,-1.7715,0.3305,-0.1566,0.0863,25.25704333,83.00795333,0.71494919,
9.8930,-0.0250,0.1781,0.7685,-1.5644,1.1049,-1.2510,0.3305,-0.1566,0.0863,25.25704333,83.00795333,0.71494919,
9.9190,-0.2871,0.3382,0.8846,-1.5644,1.1049,-1.2510,0.3305,-0.1566,0.0863,25.25704333,83.00795333,0.71494919,
9.9490,-0.2871,0.3382,0.8846,-1.5644,1.1049,-1.2510,1.4789,0.7945,-3.0611,25.25704333,83.00795333,0.71494919,
9.9540,-0.2871,0.3382,0.8846,-1.1367,0.5363,-0.8508,1.4789,0.7945,-3.0611,25.25704333,83.00795333,0.71494919,
9.9840,-0.2131,0.2621,0.8826,-1.1367,0.5363,-0.8508,1.4789,0.7945,-3.0611,25.25704333,83.00795333,0.71494919,
10.0160,-0.2131,0.2621,0.8826,-1.1367,0.5363,-0.8508,0.5490,0.3590,-1.2642,25.25704333,83.00795333,0.71494919,
10.0220,-0.2131,0.2621,0.8826,0.2764,-0.3013,-0.0372,0.5490,0.3590,-1.2642,25.25704333,83.00795333,0.71494919,
10.0520,-0.1200,0.2921,0.8405,0.2764,-0.3013,-0.0372,0.5490,0.3590,-1.2642,25.25704333,83.00795333,0.71494919,
10.0860,-0.1200,0.2921,0.8405,0.2764,-0.3013,-0.0372,0.1547,-0.1013,0.5120,25.25704333,83.00795333,0.71494919,
10.0890,-0.1200,0.2921,0.8405,0.3171,0.6308,-0.7960,0.1547,-0.1013,0.5120,25.25704333,83.00795333,0.71494919,
10.1170,-0.3442,0.3342,1.1758,0.3171,0.6308,-0.7960,0.1547,-0.1013,0.5120,25.25704333,83.00795333,0.71494919,
10.1470,-0.3442,0.3342,1.1758,0.3171,0.6308,-0.7960,-0.1330,0.1895,-0.6540,25.25704333,83.00795333,0.71494919,
10.1540,-0.3442,0.3342,1.1758,-0.8450,0.1314,3.6214,-0.1330,0.1895,-0.6540,25.25704333,83.00795333,0.71494919,
10.1820,-0.1770,0.3052,1.0047,-0.8450,0.1314,3.6214,-0.1330,0.1895,-0.6540,25.25704333,83.00795333,0.71494919,
10.2170,-0.1770,0.3052,1.0047,-0.8450,0.1314,3.6214,-0.1828,-0.0840,0.4962,25.25704333,83.00795333,0.71494919,
10.2220,-0.1770,0.3052,1.0047,0.2932,0.4089,0.3803,-0.1828,-0.0840,0.4962,25.25704333,83.00795333,0.71494919,
10.2480,-0.2121,0.3612,0.9296,0.2932,0.4089,0.3803,-0.1828,-0.0840,0.4962,25.25704333,83.00795333,0.71494919,
10.2840,-0.2121,0.3612,0.9296,0.2932,0.4089,0.3803,0.3358,0.0621,0.2978,25.25704333,83.00795333,0.71494919,
10.2860,-0.2121,0.3612,0.9296,-0.1446,0.4682,0.3357,0.3358,0.0621,0.2978,25.25704333,83.00795333,0.71494919,
10.3140,-0.1350,0.3572,0.9556,-0.1446,0.4682,0.3357,0.3358,0.0621,0.2978,25.25704333,83.00795333,0.71494919,
10.3460,-0.1350,0.3572,0.9556,-0.1446,0.4682,0.3357,0.1408,-0.1520,0.9672,25.25704333,83.00795333,0.71494919,
10.3520,-0.1350,0.3572,0.9556,0.9792,0.2112,-0.1630,0.1408,-0.1520,0.9672,25.25704333,83.00795333,0.71494919,
10.3820,-0.0090,0.3502,0.9146,0.9792,0.2112,-0.1630,0.1408,-0.1520,0.9672,25.25704333,83.00795333,0.71494919,
10.4120,-0.0090,0.3502,0.9146,0.9792,0.2112,-0.1630,0.0408,-0.4816,1.7426,25.25704333,83.00795333,0.71494919,
10.4160,-0.0090,0.3502,0.9146,1.0496,0.2617,0.1546,0.0408,-0.4816,1.7426,25.25704333,83.00795333,0.71494919,
10.4460,0.0960,0.3933,0.9487,1.0496,0.2617,0.1546,0.0408,-0.4816,1.7426,25.25704333,83.00795333,0.71494919,
10.4800,0.0960,0.3933,0.9487,1.0496,0.2617,0.1546,0.2127,-0.6840,1.9345,25.25704333,83.00795333,0.71494919,
10.5100,0.0960,0.3933,0.9487,1.4031,0.4608,0.2976,0.2127,-0.6840,1.9345,25.25704333,83.00795333,0.71494919,
10.5130,0.1391,0.3922,1.0247,1.4031,0.4608,0.2976,0.2127,-0.6840,1.9345,25.25704333,83.00795333,0.71494919,
10.5440,0.1391,0.3922,1.0247,1.4031,0.4608,0.2976,-0.0646,-0.5493,1.4017,25.25704333,83.00795333,0.71494919,
10.5460,0.1391,0.3922,1.0247,0.6756,-0.1030,1.0999,-0.0646,-0.5493,1.4017,25.25704333,83.00795333,0.71494919,
10.5790,-0.0770,0.3692,1.2358,0.6756,-0.1030,1.0999,-0.0646,-0.5493,1.4017,25.25704333,83.00795333,0.71494919,
10.6090,-0.0770,0.3692,1.2358,0.6756,-0.1030,1.0999,-0.5587,0.5728,-0.7942,25.25704333,83.00795333,0.71494919,
10.6110,-0.0770,0.3692,1.2358,-2.2767,0.4506,3.4741,-0.5587,0.5728,-0.7942,25.25704333,83.00795333,0.71494919,
10.6440,-0.0610,0.3502,0.9286,-2.2767,0.4506,3.4741,-0.5587,0.5728,-0.7942,25.25704333,83.00795333,0.71494919,
10.6760,-0.0610,0.3502,0.9286,-2.2767,0.4506,3.4741,-0.0083,0.4321,-0.9219,25.25704333,83.00795333,0.71494919,
10.6790,-0.0610,0.3502,0.9286,-0.6255,0.7304,-0.1618,-0.0083,0.4321,-0.9219,25.25704333,83.00795333,0.71494919,
10.7100,-0.2111,0.3271,1.2618,-0.6255,0.7304,-0.1618,-0.0083,0.4321,-0.9219,25.25704333,83.00795333,0.71494919,
10.7420,-0.2111,0.3271,1.2618,-0.6255,0.7304,-0.1618,-0.2828,0.5155,-1.0824,25.25704333,83.00795333,0.71494919,
10.7440,-0.2111,0.3271,1.2618,-0.8665,-0.6534,2.5505,-0.2828,0.5155,-1.0824,25.25704333,83.00795333,0.71494919,
10.7760,-0.0950,0.1220,0.9616,-0.8665,-0.6534,2.5505,-0.2828,0.5155,-1.0824,25.25704333,83.00795333,0.71494919,
10.8070,-0.0950,0.1220,0.9616,-0.8665,-0.6534,2.5505,-0.9947,0.1741,-0.2266,25.25704333,83.00795333,0.71494919,
10.8090,-0.0950,0.1220,0.9616,-0.0214,-1.1469,-0.0283,-0.9947,0.1741,-0.2266,25.25704333,83.00795333,0.71494919,
10.8430,-0.2461,0.1510,0.8005,-0.0214,-1.1469,-0.0283,-0.9947,0.1741,-0.2266,25.25704333,83.00795333,0.71494919,
10.8780,-0.2461,0.1510,0.8005,-0.0214,-1.1469,-0.0283,-0.2963,0.7573,-1.5945,25.25704333,83.00795333,0.71494919,
10.8830,-0.2461,0.1510,0.8005,-1.5437,-0.3720,-2.0527,-0.2963,0.7573,-1.5945,25.25704333,83.00795333,0.71494919,
10.9080,-0.1591,0.1520,0.6764,-1.5437,-0.3720,-2.0527,-0.2963,0.7573,-1.5945,25.25704333,83.00795333,0.71494919,
10.9390,-0.1591,0.1520,0.6764,-1.5437,-0.3720,-2.0527,0.1255,0.5036,-0.8693,25.25704333,83.00795333,0.71494919,
10.9440,-0.1591,0.1520,0.6764,1.4965,-0.6301,-2.6021,0.1255,0.5036,-0.8693,25.25704333,83.00795333,0.71494919,
10.9750,-0.0750,0.2111,0.8186,1.4965,-0.6301,-2.6021,0.1255,0.5036,-0.8693,25.25704333,83.00795333,0.71494919,
11.0050,-0.0750,0.2111,0.8186,1.4965,-0.6301,-2.6021,0.0112,-0.5047,1.5325,25.25704333,83.00795333,0.71494919,
11.0080,-0.0750,0.2111,0.8186,1.1187,0.1615,-1.5249,0.0112,-0.5047,1.5325,25.25704333,83.00795333,0.71494919,
11.0440,-0.0790,0.2952,0.9506,1.1187,0.1615,-1.5249,0.0112,-0.5047,1.5325,25.25704333,83.00795333,0.71494919,
11.0760,-0.0790,0.2952,0.9506,1.1187,0.1615,-1.5249,0.2487,-0.5211,1.6008,25.25704333,83.00795333,0.71494919,
11.0810,-0.0790,0.2952,0.9506,0.8552,0.2810,0.5738,0.2487,-0.5211,1.6008,25.25704333,83.00795333,0.71494919,
11.1070,0.0219,0.3132,0.9116,0.8552,0.2810,0.5738,0.2487,-0.5211,1.6008,25.25704333,83.00795333,0.71494919,
11.1370,0.0219,0.3132,0.9116,0.8552,0.2810,0.5738,0.2923,-0.5785,1.5539,25.25704333,83.00795333,0.71494919,
11.1430,0.0219,0.3132,0.9116,0.6282,0.4048,0.7667,0.2923,-0.5785,1.5539,25.25704333,83.00795333,0.71494919,
11.1720,-0.0200,0.2921,1.2098,0.6282,0.4048,0.7667,0.2923,-0.5785,1.5539,25.25704333,83.00795333,0.71494919,
11.2050,-0.0200,0.2921,1.2098,0.6282,0.4048,0.7667,-0.2316,-0.1954,1.0964,25.25704333,83.00795333,0.71494919,
11.2090,-0.0200,0.2921,1.2098,0.3094,0.0437,2.3455,-0.2316,-0.1954,1.0964,25.25704333,83.00795333,0.71494919,
11.2380,-0.0519,0.2942,1.0897,0.3094,0.0437,2.3455,-0.2316,-0.1954,1.0964,25.25704333,83.00795333,0.71494919,
11.2750,-0.0519,0.2942,1.0897,0.3094,0.0437,2.3455,0.0319,0.1374,0.3710,25.25704333,83.00795333,0.71494919,
11.2780,-0.0519,0.2942,1.0897,-1.0449,0.5640,-0.7292,0.0319,0.1374,0.3710,25.25704333,83.00795333,0.71494919,
11.3090,-0.2071,0.2871,0.9947,-1.0449,0.5640,-0.7292,0.0319,0.1374,0.3710,25.25704333,83.00795333,0.71494919,
11.3350,-0.2071,0.2871,0.9947,-1.0449,0.5640,-0.7292,0.1339,0.7711,-0.6487,25.25704333,83.00795333,0.71494919,
11.3370,-0.2071,0.2871,0.9947,-0.5573,-0.4306,-0.3590,0.1339,0.7711,-0.6487,25.25704333,83.00795333,0.71494919,
11.3710,-0.0480,0.1820,0.8176,-0.5573,-0.4306,-0.3590,0.1339,0.7711,-0.6487,25.25704333,83.00795333,0.71494919,
11.4010,-0.0480,0.1820,0.8176,-0.5573,-0.4306,-0.3590,-0.4741,0.1524,0.6953,25.25704333,83.00795333,0.71494919,
11.4040,-0.0480,0.1820,0.8176,0.6183,-1.0181,-1.1813,-0.4741,0.1524,0.6953,25.25704333,83.00795333,0.71494919,
11.4360,-0.1631,0.1941,0.9086,0.6183,-1.0181,-1.1813,-0.4741,0.1524,0.6953,25.25704333,83.00795333,0.71494919,
11.4690,-0.1631,0.1941,0.9086,0.6183,-1.0181,-1.1813,-0.3106,0.7168,-0.3590,25.25704333,83.00795333,0.71494919,
11.4740,-0.1631,0.1941,0.9086,-2.0192,0.0802,0.3431,-0.3106,0.7168,-0.3590,25.25704333,83.00795333,0.71494919,
11.5040,-0.4433,0.2782,1.0457,-2.0192,0.0802,0.3431,-0.3106,0.7168,-0.3590,25.25704333,83.00795333,0.71494919,
11.5370,-0.4433,0.2782,1.0457,-2.0192,0.0802,0.3431,0.1202,1.2583,-1.5144,25.25704333,83.00795333,0.71494919,
11.5400,-0.4433,0.2782,1.0457,-1.2129,-0.1592,0.9557,0.1202,1.2583,-1.5144,25.25704333,83.00795333,0.71494919,
11.5690,-0.1931,0.1610,1.0847,-1.2129,-0.1592,0.9557,0.1202,1.2583,-1.5144,25.25704333,83.00795333,0.71494919,
11.5990,-0.1931,0.1610,1.0847,-1.2129,-0.1592,0.9557,-0.7058,0.1029,0.8370,25.25704333,83.00795333,0.71494919,
11.6010,-0.1931,0.1610,1.0847,0.9114,-0.2106,0.4853,-0.7058,0.1029,0.8370,25.25704667,83.00796500,0.80914330,
11.6340,-0.0910,0.2401,0.8646,0.9114,-0.2106,0.4853,-0.7058,0.1029,0.8370,25.25704667,83.00796500,0.80914330,
11.6660,-0.0910,0.2401,0.8646,0.9114,-0.2106,0.4853,0.0226,-0.4140,1.5287,25.25704667,83.00796500,0.80914330,
11.6690,-0.0910,0.2401,0.8646,0.9450,0.5444,-0.7919,0.0226,-0.4140,1.5287,25.25704667,83.00796500,0.80914330,
11.7040,0.0259,0.2391,0.9066,0.9450,0.5444,-0.7919,0.0226,-0.4140,1.5287,25.25704667,83.00796500,0.80914330,
11.7320,0.0259,0.2391,0.9066,0.9450,0.5444,-0.7919,0.1820,-0.8506,2.0371,25.25704667,83.00796500,0.80914330,
11.7340,0.0259,0.2391,0.9066,1.4260,0.3496,-0.5824,0.1820,-0.8506,2.0371,25.25704667,83.00796500,0.80914330,
11.7660,0.0000,0.2851,0.9496,1.4260,0.3496,-0.5824,0.1820,-0.8506,2.0371,25.25704667,83.00796500,0.80914330,
11.7970,0.0000,0.2851,0.9496,1.4260,0.3496,-0.5824,0.2602,-0.3448,1.0966,25.25704667,83.00796500,0.80914330,
11.8020,0.0000,0.2851,0.9496,-0.2324,0.1803,1.1788,0.2602,-0.3448,1.0966,25.25704667,83.00796500,0.80914330,
11.8320,-0.0590,0.2491,1.1047,-0.2324,0.1803,1.1788,0.2602,-0.3448,1.0966,25.25704667,83.00796500,0.80914330,
11.8660,-0.0590,0.2491,1.1047,-0.2324,0.1803,1.1788,-0.2090,0.1230,0.7241,25.25704667,83.00796500,0.80914330,
11.8710,-0.0590,0.2491,1.1047,0.0767,-0.0230,0.7568,-0.2090,0.1230,0.7241,25.25704667,83.00796500,0.80914330,
11.9000,0.0130,0.2651,0.9766,0.0767,-0.0230,0.7568,-0.2090,0.1230,0.7241,25.25704667,83.00796500,0.80914330,
11.9300,0.0130,0.2651,0.9766,0.0767,-0.0230,0.7568,0.0632,-0.1751,0.8407,25.25704667,83.00796500,0.80914330,
11.9340,0.0130,0.2651,0.9766,0.5848,0.2233,-0.2929,0.0632,-0.1751,0.8407,25.25704667,83.00796500,0.80914330,
11.9660,0.0009,0.3271,0.8686,0.5848,0.2233,-0.2929,0.0632,-0.1751,0.8407,25.25704667,83.00796500,0.80914330,
11.9960,0.0009,0.3271,0.8686,0.5848,0.2233,-0.2929,0.6331,-0.0193,0.0284,25.25704667,83.00796500,0.80914330,
12.0020,0.0009,0.3271,0.8686,-0.2656,0.5412,-0.2122,0.6331,-0.0193,0.0284,25.25704667,83.00796500,0.80914330,
12.0320,0.0500,0.3171,0.9877,-0.2656,0.5412,-0.2122,0.6331,-0.0193,0.0284,25.25704667,83.00796500,0.80914330,
12.0660,0.0500,0.3171,0.9877,-0.2656,0.5412,-0.2122,0.2661,-0.1503,0.3985,25.25704667,83.00796500,0.80914330,
12.0690,0.0500,0.3171,0.9877,0.7801,0.1607,0.1848,0.2661,-0.1503,0.3985,25.25704667,83.00796500,0.80914330,
12.0960,-0.0720,0.3032,1.0967,0.7801,0.1607,0.1848,0.2661,-0.1503,0.3985,25.25704667,83.00796500,0.80914330,
12.1270,-0.0720,0.3032,1.0967,0.7801,0.1607,0.1848,-0.2390,0.4538,-0.0109,25.25704667,83.00796500,0.80914330,
12.1310,-0.0720,0.3032,1.0967,-1.3363,-0.0850,1.6674,-0.2390,0.4538,-0.0109,25.25704667,83.00796500,0.80914330,
12.1640,-0.0500,0.2321,0.9096,-1.3363,-0.0850,1.6674,-0.2390,0.4538,-0.0109,25.25704667,83.00796500,0.80914330,
12.1950,-0.0500,0.2321,0.9096,-1.3363,-0.0850,1.6674,-0.4042,0.3884,0.1717,25.25704667,83.00796500,0.80914330,
12.1990,-0.0500,0.2321,0.9096,0.2026,-0.6227,-0.2646,-0.4042,0.3884,0.1717,25.25704667,83.00796500,0.80914330,
12.2280,-0.0920,0.2561,0.9227,0.2026,-0.6227,-0.2646,-0.4042,0.3884,0.1717,25.25704667,83.00796500,0.80914330,
12.2640,-0.0920,0.2561,0.9227,0.2026,-0.6227,-0.2646,-0.1462,0.2696,0.0360,25.25704667,83.00796500,0.80914330,
12.2670,-0.0920,0.2561,0.9227,-0.2816,0.0408,0.2485,-0.1462,0.2696,0.0360,25.25704667,83.00796500,0.80914330,
12.2950,0.0840,0.1191,1.0807,-0.2816,0.0408,0.2485,-0.1462,0.2696,0.0360,25.25704667,83.00796500,0.80914330,
12.3250,0.0840,0.1191,1.0807,-0.2816,0.0408,0.2485,-0.9149,-0.4340,1.7415,25.25704667,83.00796500,0.80914330,
12.3280,0.0840,0.1191,1.0807,1.6239,-1.0225,0.2652,-0.9149,-0.4340,1.7415,25.25704667,83.00796500,0.80914330,
12.3630,0.1090,0.1841,0.9036,1.6239,-1.0225,0.2652,-0.9149,-0.4340,1.7415,25.25704667,83.00796500,0.80914330,
12.3910,0.1090,0.1841,0.9036,1.6239,-1.0225,0.2652,-0.1903,-0.7207,1.2694,25.25704667,83.00796500,0.80914330,
12.3930,0.1090,0.1841,0.9036,0.7506,0.1528,-1.2311,-0.1903,-0.7207,1.2694,25.25704667,83.00796500,0.80914330,
12.4260,0.1170,0.2671,0.8115,0.7506,0.1528,-1.2311,-0.1903,-0.7207,1.2694,25.25704667,83.00796500,0.80914330,
12.4590,0.1170,0.2671,0.8115,0.7506,0.1528,-1.2311,0.6494,-0.5565,0.0350,25.25704667,83.00796500,0.80914330,
12.4630,0.1170,0.2671,0.8115,0.0315,0.7120,-0.3652,0.6494,-0.5565,0.0350,25.25704667,83.00796500,0.80914330,
12.4960,0.0350,0.3622,0.9787,0.0315,0.7120,-0.3652,0.6494,-0.5565,0.0350,25.25704667,83.00796500,0.80914330,
12.5230,0.0350,0.3622,0.9787,0.0315,0.7120,-0.3652,0.7246,0.0099,-0.6693,25.25704667,83.00796500,0.80914330,
12.5250,0.0350,0.3622,0.9787,-0.3009,0.6912,0.5667,0.7246,0.0099,-0.6693,25.25704667,83.00796500,0.80914330,
12.5620,0.0350,0.3482,1.0767,-0.3009,0.6912,0.5667,0.7246,0.0099,-0.6693,25.25704667,83.00796500,0.80914330,
12.5890,0.0350,0.3482,1.0767,-0.3009,0.6912,0.5667,0.2458,0.3314,-0.5084,25.25704667,83.00796500,0.80914330,
12.5920,0.0350,0.3482,1.0767,-0.7775,0.7082,1.5057,0.2458,0.3314,-0.5084,25.25704667,83.00796500,0.80914330,
12.6240,-0.0430,0.3472,1.0907,-0.7775,0.7082,1.5057,0.2458,0.3314,-0.5084,25.25704667,83.00796500,0.80914330,
12.6570,-0.0430,0.3472,1.0907,-0.7775,0.7082,1.5057,-0.0990,0.5644,-0.4507,25.25704667,83.00796500,0.80914330,
12.6590,-0.0430,0.3472,1.0907,-0.6437,-0.2153,1.4388,-0.0990,0.5644,-0.4507,25.25704667,83.00796500,0.80914330,
12.6910,-0.0981,0.2261,1.1107,-0.6437,-0.2153,1.4388,-0.0990,0.5644,-0.4507,25.25704667,83.00796500,0.80914330,
12.7210,-0.0981,0.2261,1.1107,-0.6437,-0.2153,1.4388,-0.6124,0.7021,0.0349,25.25704667,83.00796500,0.80914330,
12.7240,-0.0981,0.2261,1.1107,-0.6809,-0.4381,1.1382,-0.6124,0.7021,0.0349,25.25704667,83.00796500,0.80914330,
12.7560,-0.1560,0.2811,0.9366,-0.6809,-0.4381,1.1382,-0.6124,0.7021,0.0349,25.25704667,83.00796500,0.80914330,
12.7870,-0.1560,0.2811,0.9366,-0.6809,-0.4381,1.1382,0.0724,0.7086,-0.7631,25.25704667,83.00796500,0.80914330,
12.7940,-0.1560,0.2811,0.9366,-1.2002,0.4625,-0.5729,0.0724,0.7086,-0.7631,25.25704667,83.00796500,0.80914330,
12.8220,-0.1660,0.2071,1.0577,-1.2002,0.4625,-0.5729,0.0724,0.7086,-0.7631,25.25704667,83.00796500,0.80914330,
12.8560,-0.1660,0.2071,1.0577,-1.2002,0.4625,-0.5729,-0.3224,0.5105,-0.0804,25.25704667,83.00796500,0.80914330,
12.8610,-0.1660,0.2071,1.0577,0.7448,-0.5952,-1.2396,-0.3224,0.5105,-0.0804,25.25704667,83.00796500,0.80914330,
12.8900,-0.0310,0.1741,0.8076,0.7448,-0.5952,-1.2396,-0.3224,0.5105,-0.0804,25.25704667,83.00796500,0.80914330,
12.9200,-0.0310,0.1741,0.8076,0.7448,-0.5952,-1.2396,-0.1131,-0.1777,0.6522,25.25704667,83.00796500,0.80914330,
12.9240,-0.0310,0.1741,0.8076,0.6192,-0.0029,-2.4482,-0.1131,-0.1777,0.6522,25.25704667,83.00796500,0.80914330,
12.9550,-0.1220,0.2832,0.7505,0.6192,-0.0029,-2.4482,-0.1131,-0.1777,0.6522,25.25704667,83.00796500,0.80914330,
12.9850,-0.1220,0.2832,0.7505,0.6192,-0.0029,-2.4482,0.8617,0.0609,-0.9854,25.25704667,83.00796500,0.80914330,
12.9880,-0.1220,0.2832,0.7505,-0.8046,0.5855,-1.2501,0.8617,0.0609,-0.9854,25.25704667,83.00796500,0.80914330,
13.0230,-0.0800,0.2861,0.9046,-0.8046,0.5855,-1.2501,0.8617,0.0609,-0.9854,25.25704667,83.00796500,0.80914330,
13.0540,-0.0800,0.2861,0.9046,-0.8046,0.5855,-1.2501,0.2518,-0.1888,0.1189,25.25704667,83.00796500,0.80914330,
13.0580,-0.0800,0.2861,0.9046,1.0961,-0.1054,-0.1791,0.2518,-0.1888,0.1189,25.25704667,83.00796500,0.80914330,
13.0860,-0.0180,0.3321,0.9066,1.0961,-0.1054,-0.1791,0.2518,-0.1888,0.1189,25.25704667,83.00796500,0.80914330,
13.1170,-0.0180,0.3321,0.9066,1.0961,-0.1054,-0.1791,0.4341,-0.4487,0.1507,25.25704667,83.00796500,0.80914330,
13.1220,-0.0180,0.3321,0.9066,0.1921,0.6236,-0.6858,0.4341,-0.4487,0.1507,25.25704667,83.00796500,0.80914330,
13.1540,0.0009,0.4012,0.9656,0.1921,0.6236,-0.6858,0.4341,-0.4487,0.1507,25.25704667,83.00796500,0.80914330,
13.1850,0.0009,0.4012,0.9656,0.1921,0.6236,-0.6858,0.4841,-0.4305,0.0663,25.25704667,83.00796500,0.80914330,
13.1890,0.0009,0.4012,0.9656,0.2207,0.4365,1.2713,0.4841,-0.4305,0.0663,25.25704667,83.00796500,0.80914330,
13.2180,-0.0690,0.4243,1.1028,0.2207,0.4365,1.2713,0.4841,-0.4305,0.0663,25.25704667,83.00796500,0.80914330,
13.2540,-0.0690,0.4243,1.1028,0.2207,0.4365,1.2713,-0.0044,0.0032,-0.0334,25.25704667,83.00796500,0.80914330,
13.2560,-0.0690,0.4243,1.1028,-0.1000,0.2294,2.6453,-0.0044,0.0032,-0.0334,25.25704667,83.00796500,0.80914330,
13.2840,-0.0190,0.3221,1.2348,-0.1000,0.2294,2.6453,-0.0044,0.0032,-0.0334,25.25704667,83.00796500,0.80914330,
13.3150,-0.0190,0.3221,1.2348,-0.1000,0.2294,2.6453,-0.6730,0.0474,0.8114,25.25704667,83.00796500,0.80914330,
13.3180,-0.0190,0.3221,1.2348,0.7346,0.0728,1.3352,-0.6730,0.0474,0.8114,25.25704667,83.00796500,0.80914330,
13.3520,0.0780,0.3252,1.0477,0.7346,0.0728,1.3352,-0.6730,0.0474,0.8114,25.25704667,83.00796500,0.80914330,
13.3820,0.0780,0.3252,1.0477,0.7346,0.0728,1.3352,-0.1910,-0.2947,0.6627,25.25704667,83.00796500,0.80914330,
13.3860,0.0780,0.3252,1.0477,0.4949,0.3861,0.9337,-0.1910,-0.2947,0.6627,25.25704667,83.00796500,0.80914330,
13.4160,-0.0450,0.2141,1.1638,0.4949,0.3861,0.9337,-0.1910,-0.2947,0.6627,25.25704667,83.00796500,0.80914330,
13.4500,-0.0450,0.2141,1.1638,0.4949,0.3861,0.9337,-0.7104,0.2490,0.6783,25.25704667,83.00796500,0.80914330,
13.4540,-0.0450,0.2141,1.1638,0.3111,-0.9451,0.3150,-0.7104,0.2490,0.6783,25.25704667,83.00796500,0.80914330,
13.4820,-0.0660,0.2692,0.7795,0.3111,-0.9451,0.3150,-0.7104,0.2490,0.6783,25.25704667,83.00796500,0.80914330,
13.5140,-0.0660,0.2692,0.7795,0.3111,-0.9451,0.3150,-0.0140,0.3123,-0.2885,25.25704667,83.00796500,0.80914330,
13.5190,-0.0660,0.2692,0.7795,-1.1054,0.2013,-1.5782,-0.0140,0.3123,-0.2885,25.25704667,83.00796500,0.80914330,
13.5500,-0.1820,0.2582,0.8465,-1.1054,0.2013,-1.5782,-0.0140,0.3123,-0.2885,25.25704667,83.00796500,0.80914330,
13.5800,-0.1820,0.2582,0.8465,-1.1054,0.2013,-1.5782,0.1376,0.6912,-1.0649,25.25704667,83.00796500,0.80914330,
13.5830,-0.1820,0.2582,0.8465,-0.3607,-0.4246,-0.6454,0.1376,0.6912,-1.0649,25.25704667,83.00796500,0.80914330,
13.6140,0.0219,0.1920,0.7264,-0.3607,-0.4246,-0.6454,0.1376,0.6912,-1.0649,25.25704667,83.00796500,0.80914330,
13.6490,0.0219,0.1920,0.7264,-0.3607,-0.4246,-0.6454,-0.2180,-0.2446,0.6864,25.25704667,83.00796500,0.80914330,
13.6520,0.0219,0.1920,0.7264,0.1816,0.0249,-2.4221,-0.2180,-0.2446,0.6864,25.25704667,83.00796500,0.80914330,
13.6820,-0.0630,0.2671,0.9156,0.1816,0.0249,-2.4221,-0.2180,-0.2446,0.6864,25.25704667,83.00796500,0.80914330,
13.7110,-0.0630,0.2671,0.9156,0.1816,0.0249,-2.4221,0.2821,-0.1170,-0.1973,25.25704667,83.00796500,0.80914330,
13.7140,-0.0630,0.2671,0.9156,0.3210,0.0354,-0.1457,0.2821,-0.1170,-0.1973,25.25704667,83.00796500,0.80914330,
13.7460,0.0250,0.2661,0.8715,0.3210,0.0354,-0.1457,0.2821,-0.1170,-0.1973,25.25704667,83.00796500,0.80914330,
13.7770,0.0250,0.2661,0.8715,0.3210,0.0354,-0.1457,0.2468,-0.4356,0.1938,25.25704667,83.00796500,0.80914330,
13.7820,0.0250,0.2661,0.8715,0.3765,0.1326,-0.6290,0.2468,-0.4356,0.1938,25.25704667,83.00796500,0.80914330,
13.8140,-0.0500,0.3462,0.9177,0.3765,0.1326,-0.6290,0.2468,-0.4356,0.1938,25.25704667,83.00796500,0.80914330,
13.8530,-0.0500,0.3462,0.9177,0.3765,0.1326,-0.6290,0.3754,-0.1516,-0.4009,25.25704667,83.00796500,0.80914330,
13.8560,-0.0500,0.3462,0.9177,0.1355,0.0499,0.3433,0.3754,-0.1516,-0.4009,25.25704667,83.00796500,0.80914330,
13.8850,-0.1341,0.2952,1.0607,0.1355,0.0499,0.3433,0.3754,-0.1516,-0.4009,25.25704667,83.00796500,0.80914330,
13.9090,-0.1341,0.2952,1.0607,0.1355,0.0499,0.3433,-0.1275,0.4400,-0.5560,25.25704667,83.00796500,0.80914330,
13.9140,-0.1341,0.2952,1.0607,-1.5185,0.1467,1.2677,-0.1275,0.4400,-0.5560,25.25704667,83.00796500,0.80914330,
13.9440,-0.2221,0.3352,1.0377,-1.5185,0.1467,1.2677,-0.1275,0.4400,-0.5560,25.25704667,83.00796500,0.80914330,
13.9750,-0.2221,0.3352,1.0377,-1.5185,0.1467,1.2677,0.0420,0.6085,-1.0381,25.25704667,83.00796500,0.80914330,
13.9790,-0.2221,0.3352,1.0377,-0.5583,-0.2548,-0.4461,0.0420,0.6085,-1.0381,25.25704667,83.00796500,0.80914330,
14.0110,-0.2501,0.2511,1.0007,-0.5583,-0.2548,-0.4461,0.0420,0.6085,-1.0381,25.25704667,83.00796500,0.80914330,
14.0430,-0.2501,0.2511,1.0007,-0.5583,-0.2548,-0.4461,-0.3744,0.7554,-0.6801,25.25704667,83.00796500,0.80914330,
14.0470,-0.2501,0.2511,1.0007,-1.4762,-0.0786,1.8756,-0.3744,0.7554,-0.6801,25.25704667,83.00796500,0.80914330,
14.0760,-0.2701,0.2051,1.0707,-1.4762,-0.0786,1.8756,-0.3744,0.7554,-0.6801,25.25704667,83.00796500,0.80914330,
14.1070,-0.2701,0.2051,1.0707,-1.4762,-0.0786,1.8756,-0.6289,0.5201,0.0445,25.25704667,83.00796500,0.80914330,
14.1120,-0.2701,0.2051,1.0707,-0.0596,-0.5692,1.3737,-0.6289,0.5201,0.0445,25.25704667,83.00796500,0.80914330,
14.1420,-0.1581,0.1681,0.8636,-0.0596,-0.5692,1.3737,-0.6289,0.5201,0.0445,25.25704667,83.00796500,0.80914330,
14.1740,-0.1581,0.1681,0.8636,-0.0596,-0.5692,1.3737,-0.5591,0.0465,0.8197,25.25704667,83.00796500,0.80914330,
14.1780,-0.1581,0.1681,0.8636,0.3124,-0.0205,-0.7354,-0.5591,0.0465,0.8197,25.25704667,83.00796500,0.80914330,
14.2080,-0.1701,0.2261,0.8756,0.3124,-0.0205,-0.7354,-0.5591,0.0465,0.8197,25.25704667,83.00796500,0.80914330,
14.2430,-0.1701,0.2261,0.8756,0.3124,-0.0205,-0.7354,0.2437,-0.1680,0.0542,25.25704667,83.00796500,0.80914330,
14.2460,-0.1701,0.2261,0.8756,0.4545,0.3358,-1.0256,0.2437,-0.1680,0.0542,25.25704667,83.00796500,0.80914330,
14.2740,-0.1181,0.2892,0.9036,0.4545,0.3358,-1.0256,0.2437,-0.1680,0.0542,25.25704667,83.00796500,0.80914330,
14.3050,-0.1181,0.2892,0.9036,0.4545,0.3358,-1.0256,0.5242,-0.5056,0.1524,25.25704667,83.00796500,0.80914330,
14.3080,-0.1181,0.2892,0.9036,1.1102,0.1549,-0.5879,0.5242,-0.5056,0.1524,25.25704667,83.00796500,0.80914330,
14.3430,0.0130,0.3132,0.8496,1.1102,0.1549,-0.5879,0.5242,-0.5056,0.1524,25.25704667,83.00796500,0.80914330,
14.3730,0.0130,0.3132,0.8496,1.1102,0.1549,-0.5879,0.4737,-0.9278,0.9074,25.25704667,83.00796500,0.80914330,
14.3770,0.0130,0.3132,0.8496,1.3970,0.3121,0.5903,0.4737,-0.9278,0.9074,25.25704667,83.00796500,0.80914330,
14.4070,0.0920,0.3392,1.0347,1.3970,0.3121,0.5903,0.4737,-0.9278,0.9074,25.25704667,83.00796500,0.80914330,
14.4390,0.0920,0.3392,1.0347,1.3970,0.3121,0.5903,0.2409,-1.0337,1.3380,25.25704667,83.00796500,0.80914330,
14.4430,0.0920,0.3392,1.0347,1.2973,0.5746,0.6200,0.2409,-1.0337,1.3380,25.25704667,83.00796500,0.80914330,
14.4720,0.0840,0.3922,0.9666,1.2973,0.5746,0.6200,0.2409,-1.0337,1.3380,25.25704667,83.00796500,0.80914330,
14.5030,0.0840,0.3922,0.9666,1.2973,0.5746,0.6200,0.3641,-0.4276,0.1755,25.25704667,83.00796500,0.80914330,
14.5050,0.0840,0.3922,0.9666,-0.2508,0.6805,2.0000,0.3641,-0.4276,0.1755,25.25704667,83.00796500,0.80914330,
14.5380,0.1691,0.4193,0.9437,-0.2508,0.6805,2.0000,0.3641,-0.4276,0.1755,25.25704667,83.00796500,0.80914330,
14.5690,0.1691,0.4193,0.9437,-0.2508,0.6805,2.0000,0.3360,-0.5412,0.3145,25.25704667,83.00796500,0.80914330,
14.5710,0.1691,0.4193,0.9437,1.7681,-0.2679,0.8839,0.3360,-0.5412,0.3145,25.25704667,83.00796500,0.80914330,
14.6040,0.0790,0.1541,1.5591,1.7681,-0.2679,0.8839,0.3360,-0.5412,0.3145,25.25704667,83.00796500,0.80914330,
14.6370,0.0790,0.1541,1.5591,1.7681,-0.2679,0.8839,-1.5674,0.6685,1.9558,25.25704667,83.00796500,0.80914330,
14.6410,0.0790,0.1541,1.5591,-0.6410,-1.3128,4.5958,-1.5674,0.6685,1.9558,25.25704667,83.00796500,0.80914330,
14.6760,-0.0860,0.1820,0.8676,-0.6410,-1.3128,4.5958,-1.5674,0.6685,1.9558,25.25704667,83.00796500,0.80914330,
14.7010,-0.0860,0.1820,0.8676,-0.6410,-1.3128,4.5958,-0.5076,0.9566,0.0285,25.25704667,83.00796500,0.80914330,
14.7030,-0.0860,0.1820,0.8676,-1.7617,-0.0672,-0.4456,-0.5076,0.9566,0.0285,25.25704667,83.00796500,0.80914330,
14.7360,-0.1881,0.1861,0.8546,-1.7617,-0.0672,-0.4456,-0.5076,0.9566,0.0285,25.25704667,83.00796500,0.80914330,
14.7670,-0.1881,0.1861,0.8546,-1.7617,-0.0672,-0.4456,-0.0418,1.1901,-1.0789,25.25704667,83.00796500,0.80914330,
14.7710,-0.1881,0.1861,0.8546,-0.8813,-0.4356,-1.5043,-0.0418,1.1901,-1.0789,25.25704667,83.00796500,0.80914330,
14.8020,-0.0250,0.1090,0.7545,-0.8813,-0.4356,-1.5043,-0.0418,1.1901,-1.0789,25.25704667,83.00796500,0.80914330,
14.8370,-0.0250,0.1090,0.7545,-0.8813,-0.4356,-1.5043,-0.2975,0.3320,0.0910,25.25704667,83.00796500,0.80914330,
14.8410,-0.0250,0.1090,0.7545,0.7600,-0.7915,-1.6771,-0.2975,0.3320,0.0910,25.25704667,83.00796500,0.80914330,
14.8710,-0.0240,0.1531,0.7876,0.7600,-0.7915,-1.6771,-0.2975,0.3320,0.0910,25.25704667,83.00796500,0.80914330,
14.8990,-0.0240,0.1531,0.7876,0.7600,-0.7915,-1.6771,0.0014,-0.2187,0.0732,25.25704667,83.00796500,0.80914330,
14.9030,-0.0240,0.1531,0.7876,0.2422,0.0037,-1.8681,0.0014,-0.2187,0.0732,25.25704667,83.00796500,0.80914330,
14.9340,-0.0870,0.2161,0.8986,0.2422,0.0037,-1.8681,0.0014,-0.2187,0.0732,25.25704667,83.00796500,0.80914330,
14.9660,-0.0870,0.2161,0.8986,0.2422,0.0037,-1.8681,0.5904,-0.0160,-1.0977,25.25704667,83.00796500,0.80914330,
14.9720,-0.0870,0.2161,0.8986,0.0346,0.3836,-1.5387,0.5904,-0.0160,-1.0977,25.25704667,83.00796500,0.80914330,
15.0030,-0.0820,0.2592,0.8756,0.0346,0.3836,-1.5387,0.5904,-0.0160,-1.0977,25.25704667,83.00796500,0.80914330,
15.0360,-0.0820,0.2592,0.8756,0.0346,0.3836,-1.5387,0.6919,-0.1095,-1.0927,25.25704667,83.00796500,0.80914330,
15.0410,-0.0820,0.2592,0.8756,-0.2370,0.3863,-0.3949,0.6919,-0.1095,-1.0927,25.25704667,83.00796500,0.80914330,
15.0660,-0.1410,0.3152,0.9136,-0.2370,0.3863,-0.3949,0.6919,-0.1095,-1.0927,25.25704667,83.00796500,0.80914330,
15.0970,-0.1410,0.3152,0.9136,-0.2370,0.3863,-0.3949,0.6661,0.0774,-1.2332,25.25704667,83.00796500,0.80914330,
15.1000,-0.1410,0.3152,0.9136,-0.3476,0.3265,-0.0976,0.6661,0.0774,-1.2332,25.25704667,83.00796500,0.80914330,
15.1320,-0.1370,0.3332,1.0778,-0.3476,0.3265,-0.0976,0.6661,0.0774,-1.2332,25.25704667,83.00796500,0.80914330,
15.1640,-0.1370,0.3332,1.0778,-0.3476,0.3265,-0.0976,0.4136,0.0566,-0.7928,25.25704667,83.00796500,0.80914330,
15.1670,-0.1370,0.3332,1.0778,-0.5818,0.8025,0.7893,0.4136,0.0566,-0.7928,25.25704667,83.00796500,0.80914330,
15.2000,-0.3342,0.2582,1.6971,-0.5818,0.8025,0.7893,0.4136,0.0566,-0.7928,25.25704667,83.00796500,0.80914330,
15.2340,-0.3342,0.2582,1.6971,-0.5818,0.8025,0.7893,-1.0325,0.6324,0.2794,25.25704667,83.00796500,0.80914330,
15.2370,-0.3342,0.2582,1.6971,0.1768,-0.9062,5.7253,-1.0325,0.6324,0.2794,25.25704667,83.00796500,0.80914330,
15.2640,-0.0390,0.1791,0.8636,0.1768,-0.9062,5.7253,-1.0325,0.6324,0.2794,25.25704667,83.00796500,0.80914330,
15.2950,-0.0390,0.1791,0.8636,0.1768,-0.9062,5.7253,-0.7088,-0.1733,1.3551,25.25704667,83.00796500,0.80914330,
15.2990,-0.0390,0.1791,0.8636,0.3912,-0.0588,-0.3526,-0.7088,-0.1733,1.3551,25.25704667,83.00796500,0.80914330,
15.3310,-0.0650,0.1470,0.9356,0.3912,-0.0588,-0.3526,-0.7088,-0.1733,1.3551,25.25704667,83.00796500,0.80914330,
15.3620,-0.0650,0.1470,0.9356,0.3912,-0.0588,-0.3526,-0.4434,-0.2644,1.1540,25.25704667,83.00796500,0.80914330,
15.3650,-0.0650,0.1470,0.9356,0.9143,-0.4161,-1.8032,-0.4434,-0.2644,1.1540,25.25704667,83.00796500,0.80914330,
15.3960,-0.0319,0.2101,0.8076,0.9143,-0.4161,-1.8032,-0.4434,-0.2644,1.1540,25.25704667,83.00796500,0.80914330,
15.4300,-0.0319,0.2101,0.8076,0.9143,-0.4161,-1.8032,0.5165,-0.3721,-0.2465,25.25704667,83.00796500,0.80914330,
15.4340,-0.0319,0.2101,0.8076,-0.2827,0.7320,-1.9863,0.5165,-0.3721,-0.2465,25.25704667,83.00796500,0.80914330,
15.4620,-0.0790,0.2521,0.9487,-0.2827,0.7320,-1.9863,0.5165,-0.3721,-0.2465,25.25704667,83.00796500,0.80914330,
15.4970,-0.0790,0.2521,0.9487,-0.2827,0.7320,-1.9863,0.4999,-0.1277,-0.4449,25.25704667,83.00796500,0.80914330,
15.5060,-0.0790,0.2521,0.9487,0.4338,-0.1028,-0.0468,0.4999,-0.1277,-0.4449,25.25704667,83.00796500,0.80914330,
15.5280,-0.0480,0.2761,0.9487,0.4338,-0.1028,-0.0468,0.4999,-0.1277,-0.4449,25.25704667,83.00796500,0.80914330,
15.5920,-0.0480,0.2761,0.9487,0.4338,-0.1028,-0.0468,0.2927,-0.2456,0.0602,25.25704667,83.00796500,0.80914330,
15.5940,-0.0480,0.2761,0.9487,0.2484,0.3431,-0.5371,0.2927,-0.2456,0.0602,25.25704667,83.00796500,0.80914330,
15.5950,-0.0519,0.3622,0.9696,0.2484,0.3431,-0.5371,0.2927,-0.2456,0.0602,25.25704667,83.00796500,0.80914330,
15.6270,-0.0519,0.3622,0.9696,0.2484,0.3431,-0.5371,0.7788,-0.3711,-0.6569,25.25704667,83.00796500,0.80914330,
15.6310,-0.0519,0.3622,0.9696,0.2142,0.7832,-0.4108,0.7788,-0.3711,-0.6569,25.25705333,83.00795333,0.60788697,
15.6600,0.0090,0.3662,1.0628,0.2142,0.7832,-0.4108,0.7788,-0.3711,-0.6569,25.25705333,83.00795333,0.60788697,
15.6910,0.0090,0.3662,1.0628,0.2142,0.7832,-0.4108,0.3365,-0.3764,0.0872,25.25705333,83.00795333,0.60788697,
15.6930,0.0090,0.3662,1.0628,0.6210,0.2410,1.8409,0.3365,-0.3764,0.0872,25.25705333,83.00795333,0.60788697,
15.7260,0.0970,0.3152,1.2779,0.6210,0.2410,1.8409,0.3365,-0.3764,0.0872,25.25705333,83.00795333,0.60788697,
15.7570,0.0970,0.3152,1.2779,0.6210,0.2410,1.8409,-0.5423,-0.2828,1.3604,25.25705333,83.00795333,0.60788697,
15.7620,0.0970,0.3152,1.2779,0.8476,-0.2221,3.0946,-0.5423,-0.2828,1.3604,25.25705333,83.00795333,0.60788697,
15.7920,0.0590,0.1360,1.2839,0.8476,-0.2221,3.0946,-0.5423,-0.2828,1.3604,25.25705333,83.00795333,0.60788697,
15.8240,0.0590,0.1360,1.2839,0.8476,-0.2221,3.0946,-0.9155,0.1942,1.3757,25.25705333,83.00795333,0.60788697,
15.8280,0.0590,0.1360,1.2839,-0.5692,-0.2735,-2.1052,-0.9155,0.1942,1.3757,25.25705333,83.00795333,0.60788697,
15.8580,-0.1731,0.2541,0.7285,-0.5692,-0.2735,-2.1052,-0.9155,0.1942,1.3757,25.25705333,83.00795333,0.60788697,
15.8900,-0.1731,0.2541,0.7285,-0.5692,-0.2735,-2.1052,0.2445,0.7835,-1.1749,25.25705333,83.00795333,0.60788697,
15.8920,-0.1731,0.2541,0.7285,-1.5459,0.0301,-1.0648,0.2445,0.7835,-1.1749,25.25705333,83.00795333,0.60788697,
15.9240,-0.0469,0.1260,0.9656,-1.5459,0.0301,-1.0648,0.2445,0.7835,-1.1749,25.25705333,83.00795333,0.60788697,
15.9550,-0.0469,0.1260,0.9656,-1.5459,0.0301,-1.0648,-0.6652,0.3981,0.5976,25.25705333,83.00795333,0.60788697,
15.9570,-0.0469,0.1260,0.9656,0.5989,-1.0338,-0.0671,-0.6652,0.3981,0.5976,25.25705333,83.00795333,0.60788697,
15.9900,0.0119,0.1460,0.7295,0.5989,-1.0338,-0.0671,-0.6652,0.3981,0.5976,25.25705333,83.00795333,0.60788697,
16.0230,0.0119,0.1460,0.7295,0.5989,-1.0338,-0.0671,-0.2142,-0.1773,0.4146,25.25705333,83.00795333,0.60788697,
16.0290,0.0119,0.1460,0.7295,-0.1486,0.0376,-0.7496,-0.2142,-0.1773,0.4146,25.25705333,83.00795333,0.60788697,
16.0560,-0.0580,0.2041,0.9847,-0.1486,0.0376,-0.7496,-0.2142,-0.1773,0.4146,25.25705333,83.00795333,0.60788697,
16.0870,-0.0580,0.2041,0.9847,-0.1486,0.0376,-0.7496,0.0954,0.0097,-0.2463,25.25705333,83.00795333,0.60788697,
16.0910,-0.0580,0.2041,0.9847,-0.2053,0.2958,0.3016,0.0954,0.0097,-0.2463,25.25705333,83.00795333,0.60788697,
16.1220,-0.0760,0.2682,0.9227,-0.2053,0.2958,0.3016,0.0954,0.0097,-0.2463,25.25705333,83.00795333,0.60788697,
16.1580,-0.0760,0.2682,0.9227,-0.2053,0.2958,0.3016,0.5652,-0.0472,-0.9477,25.25705333,83.00795333,0.60788697,
16.1620,-0.0760,0.2682,0.9227,0.0220,0.4376,-0.5581,0.5652,-0.0472,-0.9477,25.25705333,83.00795333,0.60788697,
16.1880,-0.0660,0.2782,0.9356,0.0220,0.4376,-0.5581,0.5652,-0.0472,-0.9477,25.25705333,83.00795333,0.60788697,
16.2230,-0.0660,0.2782,0.9356,0.0220,0.4376,-0.5581,0.4943,-0.0188,-0.8258,25.25705333,83.00795333,0.60788697,
16.2260,-0.0660,0.2782,0.9356,-0.8368,0.1306,-0.7006,0.4943,-0.0188,-0.8258,25.25705333,83.00795333,0.60788697,
16.2540,-0.1961,0.2692,0.8726,-0.8368,0.1306,-0.7006,0.4943,-0.0188,-0.8258,25.25705333,83.00795333,0.60788697,
16.2860,-0.1961,0.2692,0.8726,-0.8368,0.1306,-0.7006,0.2945,0.5210,-1.3347,25.25705333,83.00795333,0.60788697,
16.2910,-0.1961,0.2692,0.8726,-1.1653,0.1352,1.3155,0.2945,0.5210,-1.3347,25.25705333,83.00795333,0.60788697,
16.3220,-0.2251,0.2521,1.2979,-1.1653,0.1352,1.3155,0.2945,0.5210,-1.3347,25.25705333,83.00795333,0.60788697,
16.3520,-0.2251,0.2521,1.2979,-1.1653,0.1352,1.3155,-0.5774,0.4511,0.0597,25.25705333,83.00795333,0.60788697,
16.3560,-0.2251,0.2521,1.2979,0.0026,-0.6096,3.8578,-0.5774,0.4511,0.0597,25.25705333,83.00795333,0.60788697,
16.3860,0.0130,0.1231,1.0928,0.0026,-0.6096,3.8578,-0.5774,0.4511,0.0597,25.25705333,83.00795333,0.60788697,
16.4190,0.0130,0.1231,1.0928,0.0026,-0.6096,3.8578,-0.9875,-0.4404,2.0053,25.25705333,83.00795333,0.60788697,
16.4230,0.0130,0.1231,1.0928,1.1021,-0.2418,0.2978,-0.9875,-0.4404,2.0053,25.25705333,83.00795333,0.60788697,
16.4520,-0.0990,0.1670,1.0387,1.1021,-0.2418,0.2978,-0.9875,-0.4404,2.0053,25.25705333,83.00795333,0.60788697,
16.4850,-0.0990,0.1670,1.0387,1.1021,-0.2418,0.2978,-0.3054,-0.1449,0.6687,25.25705333,83.00795333,0.60788697,
16.5010,-0.0990,0.1670,1.0387,-0.1118,-0.0393,0.3509,-0.3054,-0.1449,0.6687,25.25705333,83.00795333,0.60788697,
16.5210,-0.1220,0.2161,0.7845,-0.1118,-0.0393,0.3509,-0.3054,-0.1449,0.6687,25.25705333,83.00795333,0.60788697,
16.5490,-0.1220,0.2161,0.7845,-0.1118,-0.0393,0.3509,0.7825,0.1614,-1.4034,25.25705333,83.00795333,0.60788697,
16.5560,-0.1220,0.2161,0.7845,-0.7374,0.9700,-2.1231,0.7825,0.1614,-1.4034,25.25705333,83.00795333,0.60788697,
16.5880,-0.1761,0.2961,0.8736,-0.7374,0.9700,-2.1231,0.7825,0.1614,-1.4034,25.25705333,83.00795333,0.60788697,
16.6160,-0.1761,0.2961,0.8736,-0.7374,0.9700,-2.1231,0.8385,0.0792,-1.4147,25.25705333,83.00795333,0.60788697,
16.6190,-0.1761,0.2961,0.8736,0.1654,-0.0921,0.4454,0.8385,0.0792,-1.4147,25.25705333,83.00795333,0.60788697,
16.6500,-0.0730,0.2441,0.8565,0.1654,-0.0921,0.4454,0.8385,0.0792,-1.4147,25.25705333,83.00795333,0.60788697,
16.6810,-0.0730,0.2441,0.8565,0.1654,-0.0921,0.4454,0.2341,-0.2615,0.1431,25.25705333,83.00795333,0.60788697,
16.6830,-0.0730,0.2441,0.8565,0.5520,0.0702,-1.0840,0.2341,-0.2615,0.1431,25.25705333,83.00795333,0.60788697,
16.7160,-0.1200,0.3332,0.8465,0.5520,0.0702,-1.0840,0.2341,-0.2615,0.1431,25.25705333,83.00795333,0.60788697,
16.7470,-0.1200,0.3332,0.8465,0.5520,0.0702,-1.0840,0.6611,-0.2785,-0.4099,25.25705333,83.00795333,0.60788697,
16.7510,-0.1200,0.3332,0.8465,0.4707,0.4187,-0.1438,0.6611,-0.2785,-0.4099,25.25705333,83.00795333,0.60788697,
16.7820,0.0450,0.3733,0.9566,0.4707,0.4187,-0.1438,0.6611,-0.2785,-0.4099,25.25705333,83.00795333,0.60788697,
16.8160,0.0450,0.3733,0.9566,0.4707,0.4187,-0.1438,0.3589,-0.7304,0.8847,25.25705333,83.00795333,0.60788697,
16.8220,0.0450,0.3733,0.9566,1.7939,0.1065,0.0709,0.3589,-0.7304,0.8847,25.25705333,83.00795333,0.60788697,
16.8480,0.0710,0.3722,1.2138,1.7939,0.1065,0.0709,0.3589,-0.7304,0.8847,25.25705333,83.00795333,0.60788697,
16.8830,0.0710,0.3722,1.2138,1.7939,0.1065,0.0709,-0.2394,-0.6163,1.4478,25.25705333,83.00795333,0.60788697,
16.8880,0.0710,0.3722,1.2138,0.1708,0.7314,2.9266,-0.2394,-0.6163,1.4478,25.25705333,83.00795333,0.60788697,
16.9140,-0.0200,0.3822,1.3068,0.1708,0.7314,2.9266,-0.2394,-0.6163,1.4478,25.25705333,83.00795333,0.60788697,
16.9450,-0.0200,0.3822,1.3068,0.1708,0.7314,2.9266,-0.8614,0.1462,1.2114,25.25705333,83.00795333,0.60788697,
16.9470,-0.0200,0.3822,1.3068,1.2758,-1.3184,4.0124,-0.8614,0.1462,1.2114,25.25705333,83.00795333,0.60788697,
16.9820,-0.0109,0.2811,0.9206,1.2758,-1.3184,4.0124,-0.8614,0.1462,1.2114,25.25705333,83.00795333,0.60788697,
17.0150,-0.0109,0.2811,0.9206,1.2758,-1.3184,4.0124,-0.3835,0.0534,0.5666,25.25705333,83.00795333,0.60788697,
17.0180,-0.0109,0.2811,0.9206,-0.8289,0.3702,-0.8269,-0.3835,0.0534,0.5666,25.25705333,83.00795333,0.60788697,
17.0460,-0.0519,0.2051,0.8606,-0.8289,0.3702,-0.8269,-0.3835,0.0534,0.5666,25.25705333,83.00795333,0.60788697,
17.0770,-0.0519,0.2051,0.8606,-0.8289,0.3702,-0.8269,-0.1483,0.4494,-0.2342,25.25705333,83.00795333,0.60788697,
17.0830,-0.0519,0.2051,0.8606,-0.6529,-0.6096,-0.9587,-0.1483,0.4494,-0.2342,25.25705333,83.00795333,0.60788697,
17.1140,0.0009,0.1010,0.8326,-0.6529,-0.6096,-0.9587,-0.1483,0.4494,-0.2342,25.25705333,83.00795333,0.60788697,
17.1440,0.0009,0.1010,0.8326,-0.6529,-0.6096,-0.9587,-0.5996,0.2607,0.7631,25.25705333,83.00795333,0.60788697,
17.1470,0.0009,0.1010,0.8326,0.3485,-0.9714,-2.4403,-0.5996,0.2607,0.7631,25.25705333,83.00795333,0.60788697,
17.1810,0.0180,0.1651,0.7715,0.3485,-0.9714,-2.4403,-0.5996,0.2607,0.7631,25.25705333,83.00795333,0.60788697,
17.2170,0.0180,0.1651,0.7715,0.3485,-0.9714,-2.4403,0.0202,0.0794,-0.1126,25.25705333,83.00795333,0.60788697,
17.2240,0.0180,0.1651,0.7715,-0.8027,0.2269,-0.7738,0.0202,0.0794,-0.1126,25.25705333,83.00795333,0.60788697,
17.2440,-0.1020,0.2501,0.8176,-0.8027,0.2269,-0.7738,0.0202,0.0794,-0.1126,25.25705333,83.00795333,0.60788697,
17.2750,-0.1020,0.2501,0.8176,-0.8027,0.2269,-0.7738,0.5395,0.3762,-1.2551,25.25705333,83.00795333,0.60788697,
17.2780,-0.1020,0.2501,0.8176,-0.3393,0.0931,-1.4260,0.5395,0.3762,-1.2551,25.25705333,83.00795333,0.60788697,
17.3110,-0.0940,0.2351,1.0678,-0.3393,0.0931,-1.4260,0.5395,0.3762,-1.2551,25.25705333,83.00795333,0.60788697,
17.3420,-0.0940,0.2351,1.0678,-0.3393,0.0931,-1.4260,0.0575,0.2150,-0.3722,25.25705333,83.00795333,0.60788697,
17.3450,-0.0940,0.2351,1.0678,-0.1165,0.0016,0.5066,0.0575,0.2150,-0.3722,25.25705333,83.00795333,0.60788697,
17.3780,-0.1131,0.2811,0.9356,-0.1165,0.0016,0.5066,0.0575,0.2150,-0.3722,25.25705333,83.00795333,0.60788697,
17.4090,-0.1131,0.2811,0.9356,-0.1165,0.0016,0.5066,0.4438,0.1466,-0.9161,25.25705333,83.00795333,0.60788697,
17.4130,-0.1131,0.2811,0.9356,-0.5073,0.4385,0.1514,0.4438,0.1466,-0.9161,25.25705333,83.00795333,0.60788697,
17.4420,-0.1341,0.3061,0.9966,-0.5073,0.4385,0.1514,0.4438,0.1466,-0.9161,25.25705333,83.00795333,0.60788697,
17.4730,-0.1341,0.3061,0.9966,-0.5073,0.4385,0.1514,0.2902,0.1116,-0.7147,25.25705333,83.00795333,0.60788697,
17.4750,-0.1341,0.3061,0.9966,-0.6805,0.2469,-0.0950,0.2902,0.1116,-0.7147,25.25705333,83.00795333,0.60788697,
17.5080,-0.1761,0.2361,1.1978,-0.6805,0.2469,-0.0950,0.2902,0.1116,-0.7147,25.25705333,83.00795333,0.60788697,
17.5450,-0.1761,0.2361,1.1978,-0.6805,0.2469,-0.0950,-0.3248,0.2856,-0.0660,25.25705333,83.00795333,0.60788697,
17.5470,-0.1761,0.2361,1.1978,0.3505,-0.5203,0.8234,-0.3248,0.2856,-0.0660,25.25705333,83.00795333,0.60788697,
17.5740,-0.0820,0.2382,0.8515,0.3505,-0.5203,0.8234,-0.3248,0.2856,-0.0660,25.25705333,83.00795333,0.60788697,
17.6060,-0.0820,0.2382,0.8515,0.3505,-0.5203,0.8234,-0.1072,-0.1960,0.3058,25.25705000,83.00793667,0.55075276,
17.6090,-0.0820,0.2382,0.8515,0.4883,-0.1318,-0.2978,-0.1072,-0.1960,0.3058,25.25705000,83.00793667,0.55075276,
17.6400,-0.0340,0.1991,1.0327,0.4883,-0.1318,-0.2978,-0.1072,-0.1960,0.3058,25.25705000,83.00793667,0.55075276,
17.6710,-0.0340,0.1991,1.0327,0.4883,-0.1318,-0.2978,-0.6427,-0.3622,1.3684,25.25705000,83.00793667,0.55075276,
17.6730,-0.0340,0.1991,1.0327,0.7283,-0.4252,1.5211,-0.6427,-0.3622,1.3684,25.25705000,83.00793667,0.55075276,
17.7060,-0.0840,0.2942,0.8756,0.7283,-0.4252,1.5211,-0.6427,-0.3622,1.3684,25.25705000,83.00793667,0.55075276,
17.7370,-0.0840,0.2942,0.8756,0.7283,-0.4252,1.5211,0.3919,-0.1540,-0.5486,25.25705000,83.00793667,0.55075276,
17.7420,-0.0840,0.2942,0.8756,-0.5821,0.9016,-0.7893,0.3919,-0.1540,-0.5486,25.25705000,83.00793667,0.55075276,
17.7720,-0.1260,0.3642,0.8866,-0.5821,0.9016,-0.7893,0.3919,-0.1540,-0.5486,25.25705000,83.00793667,0.55075276,
17.8060,-0.1260,0.3642,0.8866,-0.5821,0.9016,-0.7893,1.0582,-0.0620,-1.5942,25.25705000,83.00793667,0.55075276,
17.8090,-0.1260,0.3642,0.8866,-0.0289,0.6499,-0.4774,1.0582,-0.0620,-1.5942,25.25705000,83.00793667,0.55075276,
17.8400,-0.0680,0.3602,0.9356,-0.0289,0.6499,-0.4774,1.0582,-0.0620,-1.5942,25.25705000,83.00793667,0.55075276,
17.8700,-0.0680,0.3602,0.9356,-0.0289,0.6499,-0.4774,0.5435,-0.3089,-0.2418,25.25705000,83.00793667,0.55075276,
17.8740,-0.0680,0.3602,0.9356,0.6353,0.0666,-0.2686,0.5435,-0.3089,-0.2418,25.25705000,83.00793667,0.55075276,
17.9040,0.0830,0.3071,1.0127,0.6353,0.0666,-0.2686,0.5435,-0.3089,-0.2418,25.25705000,83.00793667,0.55075276,
17.9360,0.0830,0.3071,1.0127,0.6353,0.0666,-0.2686,-0.2209,-0.5254,1.3560,25.25705000,83.00793667,0.55075276,
17.9400,0.0830,0.3071,1.0127,0.7425,-0.0326,0.3716,-0.2209,-0.5254,1.3560,25.25705000,83.00793667,0.55075276,
17.9770,0.0200,0.3002,1.1398,0.7425,-0.0326,0.3716,-0.2209,-0.5254,1.3560,25.25705000,83.00793667,0.55075276,
18.0270,0.0200,0.3002,1.1398,0.7425,-0.0326,0.3716,-0.3543,-0.1234,0.9434,25.25705000,83.00793667,0.55075276,
18.0320,0.0200,0.3002,1.1398,0.4164,0.2247,-0.1706,-0.3543,-0.1234,0.9434,25.25705000,83.00793667,0.55075276,
18.0420,0.1270,0.3202,0.9677,0.4164,0.2247,-0.1706,-0.3543,-0.1234,0.9434,25.25705000,83.00793667,0.55075276,
18.0670,0.1270,0.3202,0.9677,0.4164,0.2247,-0.1706,-0.0856,-0.4102,0.7200,25.25705000,83.00793667,0.55075276,
18.0700,0.1270,0.3202,0.9677,0.4870,-0.0366,1.2653,-0.0856,-0.4102,0.7200,25.25705000,83.00793667,0.55075276,
18.1020,-0.0460,0.1951,1.3459,0.4870,-0.0366,1.2653,-0.0856,-0.4102,0.7200,25.25705000,83.00793667,0.55075276,
18.1330,-0.0460,0.1951,1.3459,0.4870,-0.0366,1.2653,-1.0246,0.5915,1.0155,25.25705000,83.00793667,0.55075276,
18.1370,-0.0460,0.1951,1.3459,-0.3486,-0.9426,2.4325,-1.0246,0.5915,1.0155,25.25705000,83.00793667,0.55075276,
18.1700,-0.2582,0.2761,1.1448,-0.3486,-0.9426,2.4325,-1.0246,0.5915,1.0155,25.25705000,83.00793667,0.55075276,
18.2030,-0.2582,0.2761,1.1448,-0.3486,-0.9426,2.4325,-0.1605,1.2156,-1.0073,25.25705000,83.00793667,0.55075276,
18.2060,-0.2582,0.2761,1.1448,-1.5639,-0.0466,1.5642,-0.1605,1.2156,-1.0073,25.25705000,83.00793667,0.55075276,
18.2340,-0.1010,0.1470,0.8355,-1.5639,-0.0466,1.5642,-0.1605,1.2156,-1.0073,25.25705000,83.00793667,0.55075276,
18.2650,-0.1010,0.1470,0.8355,-1.5639,-0.0466,1.5642,-0.2106,0.5188,-0.1796,25.25705000,83.00793667,0.55075276,
18.2670,-0.1010,0.1470,0.8355,0.2817,-0.4838,-2.9710,-0.2106,0.5188,-0.1796,25.25705000,83.00793667,0.55075276,
18.3020,-0.0610,0.1901,0.6044,0.2817,-0.4838,-2.9710,-0.2106,0.5188,-0.1796,25.25705000,83.00793667,0.55075276,
18.3320,-0.0610,0.1901,0.6044,0.2817,-0.4838,-2.9710,0.6225,-0.0870,-0.7795,25.25705000,83.00793667,0.55075276,
18.3350,-0.0610,0.1901,0.6044,0.2061,0.2498,-2.2809,0.6225,-0.0870,-0.7795,25.25705000,83.00793667,0.55075276,
18.3660,-0.0920,0.2842,0.7205,0.2061,0.2498,-2.2809,0.6225,-0.0870,-0.7795,25.25705000,83.00793667,0.55075276,
18.3990,-0.0920,0.2842,0.7205,0.2061,0.2498,-2.2809,1.0860,-0.3509,-1.1194,25.25705000,83.00793667,0.55075276,
18.4030,-0.0920,0.2842,0.7205,0.6045,-0.0196,-2.8855,1.0860,-0.3509,-1.1194,25.25705000,83.00793667,0.55075276,
18.4320,-0.0740,0.2521,0.8526,0.6045,-0.0196,-2.8855,1.0860,-0.3509,-1.1194,25.25705000,83.00793667,0.55075276,
18.4630,-0.0740,0.2521,0.8526,0.6045,-0.0196,-2.8855,0.0857,-0.1472,0.1337,25.25705000,83.00793667,0.55075276,
18.4650,-0.0740,0.2521,0.8526,0.0177,-0.4846,-0.1529,0.0857,-0.1472,0.1337,25.25705000,83.00793667,0.55075276,
18.4980,-0.0700,0.2642,0.9227,0.0177,-0.4846,-0.1529,0.0857,-0.1472,0.1337,25.25705000,83.00793667,0.55075276,
18.5290,-0.0700,0.2642,0.9227,0.0177,-0.4846,-0.1529,-0.3950,0.0543,0.5780,25.25705000,83.00793667,0.55075276,
18.5310,-0.0700,0.2642,0.9227,-0.0314,-0.5644,0.3366,-0.3950,0.0543,0.5780,25.25705000,83.00793667,0.55075276,
18.5720,-0.1981,0.2651,1.0667,-0.0314,-0.5644,0.3366,-0.3950,0.0543,0.5780,25.25705000,83.00793667,0.55075276,
18.5970,-0.1981,0.2651,1.0667,-0.0314,-0.5644,0.3366,-0.4938,0.4722,0.1341,25.25705000,83.00793667,0.55075276,
18.5990,-0.1981,0.2651,1.0667,-0.8240,0.0067,1.0294,-0.4938,0.4722,0.1341,25.25704667,83.00792667,0.53531110,
18.6330,-0.1691,0.1731,1.2618,-0.8240,0.0067,1.0294,-0.4938,0.4722,0.1341,25.25704667,83.00792667,0.53531110,
18.6610,-0.1691,0.1731,1.2618,-0.8240,0.0067,1.0294,-0.8341,0.3794,0.7621,25.25704667,83.00792667,0.53531110,
18.6630,-0.1691,0.1731,1.2618,0.1958,-0.4761,2.7326,-0.8341,0.3794,0.7621,25.25704667,83.00792667,0.53531110,
18.6960,-0.1020,0.2081,0.9947,0.1958,-0.4761,2.7326,-0.8341,0.3794,0.7621,25.25704667,83.00792667,0.53531110,
18.7270,-0.1020,0.2081,0.9947,0.1958,-0.4761,2.7326,-0.2383,-0.0480,0.3647,25.25704667,83.00792667,0.53531110,
18.7290,-0.1020,0.2081,0.9947,-0.2037,0.2818,1.0387,-0.2383,-0.0480,0.3647,25.25704667,83.00792667,0.53531110,
18.7620,-0.0990,0.1560,1.0407,-0.2037,0.2818,1.0387,-0.2383,-0.0480,0.3647,25.25704667,83.00792667,0.53531110,
18.7970,-0.0990,0.1560,1.0407,-0.2037,0.2818,1.0387,-0.2446,0.0128,0.3176,25.25704667,83.00792667,0.53531110,
18.7980,-0.0990,0.1560,1.0407,-0.9738,0.2117,-0.2690,-0.2446,0.0128,0.3176,25.25704667,83.00792667,0.53531110,
18.8280,-0.2732,0.2441,0.8615,-0.9738,0.2117,-0.2690,-0.2446,0.0128,0.3176,25.25704667,83.00792667,0.53531110,
18.8590,-0.2732,0.2441,0.8615,-0.9738,0.2117,-0.2690,0.7238,0.6458,-1.8506,25.25704667,83.00792667,0.53531110,
18.8610,-0.2732,0.2441,0.8615,-1.0596,0.5301,-0.7761,0.7238,0.6458,-1.8506,25.25704667,83.00792667,0.53531110,
18.8950,-0.1350,0.2051,0.8346,-1.0596,0.5301,-0.7761,0.7238,0.6458,-1.8506,25.25704667,83.00792667,0.53531110,
18.9250,-0.1350,0.2051,0.8346,-1.0596,0.5301,-0.7761,0.3820,-0.0708,-0.3701,25.25704667,83.00792667,0.53531110,
18.9270,-0.1350,0.2051,0.8346,1.1526,-0.2082,-1.3800,0.3820,-0.0708,-0.3701,25.25704667,83.00792667,0.53531110,
18.9610,-0.0620,0.2711,0.8155,1.1526,-0.2082,-1.3800,0.3820,-0.0708,-0.3701,25.25704667,83.00792667,0.53531110,
18.9920,-0.0620,0.2711,0.8155,1.1526,-0.2082,-1.3800,0.6617,-0.7132,0.0890,25.25704667,83.00792667,0.53531110,
18.9950,-0.0620,0.2711,0.8155,1.0159,0.5908,-0.5402,0.6617,-0.7132,0.0890,25.25704667,83.00792667,0.53531110,
19.0260,-0.0250,0.3142,1.1097,1.0159,0.5908,-0.5402,0.6617,-0.7132,0.0890,25.25704667,83.00792667,0.53531110,
19.0570,-0.0250,0.3142,1.1097,1.0159,0.5908,-0.5402,0.1737,-0.6687,0.9076,25.25704667,83.00792667,0.53531110,
19.0600,-0.0250,0.3142,1.1097,0.6461,0.3540,1.6093,0.1737,-0.6687,0.9076,25.25704667,83.00792667,0.53531110,
19.0920,0.0130,0.3182,0.9847,0.6461,0.3540,1.6093,0.1737,-0.6687,0.9076,25.25704667,83.00792667,0.53531110,
19.1230,0.0130,0.3182,0.9847,0.6461,0.3540,1.6093,0.0308,-0.4911,0.7614,25.25704667,83.00792667,0.53531110,
19.1280,0.0130,0.3182,0.9847,0.6012,-0.2619,1.5688,0.0308,-0.4911,0.7614,25.25704667,83.00792667,0.53531110,
19.1580,0.0480,0.3462,1.0707,0.6012,-0.2619,1.5688,0.0308,-0.4911,0.7614,25.25704667,83.00792667,0.53531110,
19.1940,0.0480,0.3462,1.0707,0.6012,-0.2619,1.5688,-0.0443,-0.4363,0.7389,25.25704667,83.00792667,0.53531110,
19.1970,0.0480,0.3462,1.0707,1.1314,0.1896,0.5202,-0.0443,-0.4363,0.7389,25.25704667,83.00792667,0.53531110,
19.2240,0.0600,0.2071,1.3459,1.1314,0.1896,0.5202,-0.0443,-0.4363,0.7389,25.25704667,83.00792667,0.53531110,
19.2570,0.0600,0.2071,1.3459,1.1314,0.1896,0.5202,-0.8605,0.2047,1.2726,25.25704667,83.00792667,0.53531110,
19.2610,0.0600,0.2071,1.3459,-0.6345,-0.4446,3.1462,-0.8605,0.2047,1.2726,25.25704667,83.00792667,0.53531110,
19.2920,-0.0590,0.1570,1.0087,-0.6345,-0.4446,3.1462,-0.8605,0.2047,1.2726,25.25704667,83.00792667,0.53531110,
19.3220,-0.0590,0.1570,1.0087,-0.6345,-0.4446,3.1462,-0.5946,0.4909,0.4893,25.25704667,83.00792667,0.53531110,
19.3260,-0.0590,0.1570,1.0087,-0.9354,-0.4897,-0.0843,-0.5946,0.4909,0.4893,25.25704667,83.00792667,0.53531110,
19.3560,-0.1320,0.1241,1.0247,-0.9354,-0.4897,-0.0843,-0.5946,0.4909,0.4893,25.25704667,83.00792667,0.53531110,
19.3890,-0.1320,0.1241,1.0247,-0.9354,-0.4897,-0.0843,-0.4447,0.8148,0.0181,25.25704667,83.00792667,0.53531110,
19.3930,-0.1320,0.1241,1.0247,-0.9521,-0.3873,-0.8257,-0.4447,0.8148,0.0181,25.25704667,83.00792667,0.53531110,
19.4220,-0.1231,0.1501,0.7665,-0.9521,-0.3873,-0.8257,-0.4447,0.8148,0.0181,25.25704667,83.00792667,0.53531110,
19.4540,-0.1231,0.1501,0.7665,-0.9521,-0.3873,-0.8257,0.0228,0.5434,-0.4247,25.25704667,83.00792667,0.53531110,
19.4570,-0.1231,0.1501,0.7665,0.0402,-0.1723,-2.0354,0.0228,0.5434,-0.4247,25.25704667,83.00792667,0.53531110,
19.4970,-0.0950,0.1681,0.8496,0.0402,-0.1723,-2.0354,0.0228,0.5434,-0.4247,25.25704667,83.00792667,0.53531110,
19.5260,-0.0950,0.1681,0.8496,0.0402,-0.1723,-2.0354,0.1580,0.0760,-0.2796,25.25704667,83.00792667,0.53531110,
19.5280,-0.0950,0.1681,0.8496,0.0716,0.0323,-0.9042,0.1580,0.0760,-0.2796,25.25704667,83.00792667,0.53531110,
19.5730,-0.1160,0.1720,0.7274,0.0716,0.0323,-0.9042,0.1580,0.0760,-0.2796,25.25704667,83.00792667,0.53531110,
19.5990,-0.1160,0.1720,0.7274,0.0716,0.0323,-0.9042,0.3822,0.1597,-0.6603,25.25704667,83.00792667,0.53531110,
19.6020,-0.1160,0.1720,0.7274,-0.0583,-0.2446,-2.1254,0.3822,0.1597,-0.6603,25.25704667,83.00792667,0.53531110,
19.6210,-0.1391,0.1531,0.9066,-0.0583,-0.2446,-2.1254,0.3822,0.1597,-0.6603,25.25704667,83.00792667,0.53531110,
19.6510,-0.1391,0.1531,0.9066,-0.0583,-0.2446,-2.1254,-0.2815,0.2990,0.1962,25.25704333,83.00791333,0.55487055,
19.6540,-0.1391,0.1531,0.9066,-0.3457,-0.2665,1.0483,-0.2815,0.2990,0.1962,25.25704333,83.00791333,0.55487055,
19.6860,-0.1601,0.1851,1.0888,-0.3457,-0.2665,1.0483,-0.2815,0.2990,0.1962,25.25704333,83.00791333,0.55487055,
19.7180,-0.1601,0.1851,1.0888,-0.3457,-0.2665,1.0483,-0.1767,0.0833,0.2107,25.25704333,83.00791333,0.55487055,
19.7220,-0.1601,0.1851,1.0888,0.1844,0.0524,-0.1982,-0.1767,0.0833,0.2107,25.25704333,83.00791333,0.55487055,
19.7520,-0.3883,0.2882,1.0127,0.1844,0.0524,-0.1982,-0.1767,0.0833,0.2107,25.25704333,83.00791333,0.55487055,
19.7850,-0.3883,0.2882,1.0127,0.1844,0.0524,-0.1982,0.5861,0.7368,-1.6570,25.25704333,83.00791333,0.55487055,
19.7910,-0.3883,0.2882,1.0127,-1.6276,0.3335,3.6071,0.5861,0.7368,-1.6570,25.25704333,83.00791333,0.55487055,
19.8180,-0.0490,0.1020,1.3068,-1.6276,0.3335,3.6071,0.5861,0.7368,-1.6570,25.25704333,83.00791333,0.55487055,
19.8500,-0.0490,0.1020,1.3068,-1.6276,0.3335,3.6071,-0.9865,-0.5489,1.8768,25.25704333,83.00791333,0.55487055,
19.8550,-0.0490,0.1020,1.3068,1.8683,-0.6219,1.0392,-0.9865,-0.5489,1.8768,25.25704333,83.00791333,0.55487055,
19.8920,-0.0981,0.2311,0.8856,1.8683,-0.6219,1.0392,-0.9865,-0.5489,1.8768,25.25704333,83.00791333,0.55487055,
19.9220,-0.0981,0.2311,0.8856,1.8683,-0.6219,1.0392,0.2002,-0.5148,0.0733,25.25704333,83.00791333,0.55487055,
19.9330,-0.0981,0.2311,0.8856,-0.8091,1.1847,-1.2412,0.2002,-0.5148,0.0733,25.25704333,83.00791333,0.55487055,
19.9510,-0.3142,0.3612,0.8676,-0.8091,1.1847,-1.2412,0.2002,-0.5148,0.0733,25.25704333,83.00791333,0.55487055,
19.9840,-0.3142,0.3612,0.8676,-0.8091,1.1847,-1.2412,1.5579,0.4378,-2.5471,25.25704333,83.00791333,0.55487055,
19.9870,-0.3142,0.3612,0.8676,-1.3156,1.2317,-0.8254,1.5579,0.4378,-2.5471,25.25704333,83.00791333,0.55487055,
20.0160,-0.2161,0.3002,0.8665,-1.3156,1.2317,-0.8254,1.5579,0.4378,-2.5471,25.25704333,83.00791333,0.55487055,
20.0490,-0.2161,0.3002,0.8665,-1.3156,1.2317,-0.8254,1.1001,0.2055,-1.4608,25.25704333,83.00791333,0.55487055,
20.0540,-0.2161,0.3002,0.8665,0.8284,-0.2582,-0.8466,1.1001,0.2055,-1.4608,25.25704333,83.00791333,0.55487055,
20.0820,-0.0069,0.2382,0.8636,0.8284,-0.2582,-0.8466,1.1001,0.2055,-1.4608,25.25704333,83.00791333,0.55487055,
20.1140,-0.0069,0.2382,0.8636,0.8284,-0.2582,-0.8466,-0.3319,-0.7995,1.8731,25.25704333,83.00791333,0.55487055,
20.1180,-0.0069,0.2382,0.8636,1.9475,-0.4795,-0.6240,-0.3319,-0.7995,1.8731,25.25704333,83.00791333,0.55487055,
20.1500,0.1581,0.2611,0.9186,1.9475,-0.4795,-0.6240,-0.3319,-0.7995,1.8731,25.25704333,83.00791333,0.55487055,
20.1840,0.1581,0.2611,0.9186,1.9475,-0.4795,-0.6240,-0.2774,-1.4015,2.2415,25.25704333,83.00791333,0.55487055,
20.1870,0.1581,0.2611,0.9186,1.9800,-0.4185,-0.9031,-0.2774,-1.4015,2.2415,25.25704333,83.00791333,0.55487055,
20.2140,0.2721,0.1541,1.1028,1.9800,-0.4185,-0.9031,-0.2774,-1.4015,2.2415,25.25704333,83.00791333,0.55487055,
20.2460,0.2721,0.1541,1.1028,1.9800,-0.4185,-0.9031,-0.8371,-1.0955,2.3117,25.25704333,83.00791333,0.55487055,
20.2510,0.2721,0.1541,1.1028,0.8882,-0.5030,4.3550,-0.8371,-1.0955,2.3117,25.25704333,83.00791333,0.55487055,
20.2820,0.0940,0.2121,1.3299,0.8882,-0.5030,4.3550,-0.8371,-1.0955,2.3117,25.25704333,83.00791333,0.55487055,
20.3120,0.0940,0.2121,1.3299,0.8882,-0.5030,4.3550,-0.5847,0.4829,0.6594,25.25704333,83.00791333,0.55487055,
20.3150,0.0940,0.2121,1.3299,-1.2641,0.4534,4.6817,-0.5847,0.4829,0.6594,25.25704333,83.00791333,0.55487055,
20.3460,-0.1610,0.1270,1.5060,-1.2641,0.4534,4.6817,-0.5847,0.4829,0.6594,25.25704333,83.00791333,0.55487055,
20.3800,-0.1610,0.1270,1.5060,-1.2641,0.4534,4.6817,-0.4514,1.4855,-0.1128,25.25704333,83.00791333,0.55487055,
20.3840,-0.1610,0.1270,1.5060,-1.8122,0.1880,0.0026,-0.4514,1.4855,-0.1128,25.25704333,83.00791333,0.55487055,
20.4120,-0.1720,0.1820,0.7624,-1.8122,0.1880,0.0026,-0.4514,1.4855,-0.1128,25.25704333,83.00791333,0.55487055,
20.4440,-0.1720,0.1820,0.7624,-1.8122,0.1880,0.0026,0.3792,1.0386,-1.1728,25.25704333,83.00791333,0.55487055,
20.4470,-0.1720,0.1820,0.7624,-0.7650,0.2450,-2.2957,0.3792,1.0386,-1.1728,25.25704333,83.00791333,0.55487055,
20.4820,-0.1260,0.1310,0.8026,-0.7650,0.2450,-2.2957,0.3792,1.0386,-1.1728,25.25704333,83.00791333,0.55487055,
20.5090,-0.1260,0.1310,0.8026,-0.7650,0.2450,-2.2957,0.1525,0.5767,-0.5921,25.25704333,83.00791333,0.55487055,
20.5160,-0.1260,0.1310,0.8026,0.0853,-0.4874,-1.8871,0.1525,0.5767,-0.5921,25.25704333,83.00791333,0.55487055,
20.5460,-0.0560,0.0900,0.7705,0.0853,-0.4874,-1.8871,0.1525,0.5767,-0.5921,25.25704333,83.00791333,0.55487055,
20.5940,-0.0560,0.0900,0.7705,0.0853,-0.4874,-1.8871,-0.3214,-0.1505,0.5391,25.25704333,83.00791333,0.55487055,
20.5970,-0.0560,0.0900,0.7705,0.5884,-0.3851,-1.7372,-0.3214,-0.1505,0.5391,25.25704333,83.00791333,0.55487055,
20.6120,-0.1140,0.1691,0.8265,0.5884,-0.3851,-1.7372,-0.3214,-0.1505,0.5391,25.25704333,83.00791333,0.55487055,
20.6410,-0.1140,0.1691,0.8265,0.5884,-0.3851,-1.7372,0.1813,-0.0697,-0.2523,25.25703833,83.00790333,0.58678335,
20.6430,-0.1140,0.1691,0.8265,0.1077,-0.0326,-1.2881,0.1813,-0.0697,-0.2523,25.25703833,83.00790333,0.58678335,
20.6760,-0.1181,0.1120,0.9847,0.1077,-0.0326,-1.2881,0.1813,-0.0697,-0.2523,25.25703833,83.00790333,0.58678335,
20.7070,-0.1181,0.1120,0.9847,0.1077,-0.0326,-1.2881,-0.2520,0.1391,0.1888,25.25703833,83.00790333,0.58678335,
20.7100,-0.1181,0.1120,0.9847,-0.3502,-0.2390,0.1909,-0.2520,0.1391,0.1888,25.25703833,83.00790333,0.58678335,
20.7420,-0.1911,0.1291,1.0287,-0.3502,-0.2390,0.1909,-0.2520,0.1391,0.1888,25.25703833,83.00790333,0.58678335,
20.7750,-0.1911,0.1291,1.0287,-0.3502,-0.2390,0.1909,0.0575,0.4060,-0.3704,25.25703833,83.00790333,0.58678335,
20.7770,-0.1911,0.1291,1.0287,-0.4361,0.4748,-0.6507,0.0575,0.4060,-0.3704,25.25703833,83.00790333,0.58678335,
20.8080,-0.2021,0.2231,0.9506,-0.4361,0.4748,-0.6507,0.0575,0.4060,-0.3704,25.25703833,83.00790333,0.58678335,
20.8420,-0.2021,0.2231,0.9506,-0.4361,0.4748,-0.6507,1.0306,0.1760,-1.8080,25.25703833,83.00790333,0.58678335,
20.8440,-0.2021,0.2231,0.9506,-0.5875,0.9758,-1.1808,1.0306,0.1760,-1.8080,25.25703833,83.00790333,0.58678335,
20.8750,-0.2141,0.1741,1.5040,-0.5875,0.9758,-1.1808,1.0306,0.1760,-1.8080,25.25703833,83.00790333,0.58678335,
20.9060,-0.2141,0.1741,1.5040,-0.5875,0.9758,-1.1808,-0.7647,-0.2945,1.1627,25.25703833,83.00790333,0.58678335,
20.9100,-0.2141,0.1741,1.5040,0.8564,-0.5880,6.4315,-0.7647,-0.2945,1.1627,25.25703833,83.00790333,0.58678335,
20.9430,0.0500,0.0990,1.1257,0.8564,-0.5880,6.4315,-0.7647,-0.2945,1.1627,25.25703833,83.00790333,0.58678335,
20.9730,0.0500,0.0990,1.1257,0.8564,-0.5880,6.4315,-0.5357,-0.9172,1.2268,25.25703833,83.00790333,0.58678335,
20.9750,0.0500,0.0990,1.1257,0.4199,0.4544,0.0789,-0.5357,-0.9172,1.2268,25.25703833,83.00790333,0.58678335,
21.0060,-0.0920,0.2101,0.9016,0.4199,0.4544,0.0789,-0.5357,-0.9172,1.2268,25.25703833,83.00790333,0.58678335,
21.0370,-0.0920,0.2101,0.9016,0.4199,0.4544,0.0789,0.5475,-0.0275,-0.9581,25.25703833,83.00790333,0.58678335,
21.0390,-0.0920,0.2101,0.9016,-1.0616,0.8678,-0.5065,0.5475,-0.0275,-0.9581,25.25703833,83.00790333,0.58678335,
21.0720,-0.1691,0.2281,0.8365,-1.0616,0.8678,-0.5065,0.5475,-0.0275,-0.9581,25.25703833,83.00790333,0.58678335,
21.1030,-0.1691,0.2281,0.8365,-1.0616,0.8678,-0.5065,0.8737,0.3137,-1.6786,25.25703833,83.00790333,0.58678335,
21.1040,-0.1691,0.2281,0.8365,-0.3765,0.3014,-1.7556,0.8737,0.3137,-1.6786,25.25703833,83.00790333,0.58678335,
21.1380,-0.1300,0.2341,0.8026,-0.3765,0.3014,-1.7556,0.8737,0.3137,-1.6786,25.25703833,83.00790333,0.58678335,
21.1710,-0.1300,0.2341,0.8026,-0.3765,0.3014,-1.7556,0.8444,0.0945,-1.3306,25.25703833,83.00790333,0.58678335,
21.1730,-0.1300,0.2341,0.8026,-0.3941,0.6232,-1.5218,0.8444,0.0945,-1.3306,25.25703833,83.00790333,0.58678335,
21.2040,-0.1431,0.3102,0.8176,-0.3941,0.6232,-1.5218,0.8444,0.0945,-1.3306,25.25703833,83.00790333,0.58678335,
21.2050,-0.1431,0.3102,0.8176,-0.3941,0.6232,-1.5218,0.8444,0.0945,-1.3306,25.25703833,83.00790333,0.58678335,
21.2060,-0.1431,0.3102,0.8176,-0.3941,0.6232,-1.5218,0.8444,0.0945,-1.3306,25.25703833,83.00790333,0.58678335,
21.2060,-0.1431,0.3102,0.8176,-0.3941,0.6232,-1.5218,0.8444,0.0945,-1.3306,25.25703833,83.00790333,0.58678335,
21.2070,-0.1431,0.3102,0.8176,-0.3941,0.6232,-1.5218,0.8444,0.0945,-1.3306,25.25703833,83.00790333,0.58678335,
21.2070,-0.1431,0.3102,0.8176,-0.3941,0.6232,-1.5218,0.8444,0.0945,-1.3306,25.25703833,83.00790333,0.58678335,
21.2150,-0.1431,0.3102,0.8176,-0.3941,0.6232,-1.5218,0.8444,0.0945,-1.3306,25.25703833,83.00790333,0.58678335,
21.2240,-0.0019,0.2432,0.8966,-0.3941,0.6232,-1.5218,0.8444,0.0945,-1.3306,25.25703833,83.00790333,0.58678335,
21.2340,0.0269,0.2321,0.9166,-0.3941,0.6232,-1.5218,0.8444,0.0945,-1.3306,25.25703833,83.00790333,0.58678335,
21.2350,0.0269,0.2321,0.9166,-0.3941,0.6232,-1.5218,0.5858,-0.3197,-0.2860,25.25703833,83.00790333,0.58678335,
21.2360,0.0269,0.2321,0.9166,-0.3941,0.6232,-1.5218,0.5858,-0.3197,-0.2860,25.25703833,83.00790333,0.58678335,
21.2370,0.0269,0.2321,0.9166,-0.3941,0.6232,-1.5218,0.5858,-0.3197,-0.2860,25.25703833,83.00790333,0.58678335,
21.2370,0.0269,0.2321,0.9166,-0.3941,0.6232,-1.5218,0.5858,-0.3197,-0.2860,25.25703833,83.00790333,0.58678335,
21.2380,0.0269,0.2321,0.9166,-0.3941,0.6232,-1.5218,0.5858,-0.3197,-0.2860,25.25703833,83.00790333,0.58678335,
21.2390,0.0269,0.2321,0.9166,-0.3941,0.6232,-1.5218,0.5858,-0.3197,-0.2860,25.25703833,83.00790333,0.58678335,
21.2390,0.0269,0.2321,0.9166,-0.3941,0.6232,-1.5218,0.5858,-0.3197,-0.2860,25.25703833,83.00790333,0.58678335,
21.2440,0.0660,0.2332,0.9466,-0.3941,0.6232,-1.5218,0.5858,-0.3197,-0.2860,25.25703833,83.00790333,0.58678335,
21.2440,0.0660,0.2332,0.9466,-0.3941,0.6232,-1.5218,0.2936,-0.4925,0.4204,25.25703833,83.00790333,0.58678335,
21.2540,0.1010,0.2421,0.9797,-0.3941,0.6232,-1.5218,0.2936,-0.4925,0.4204,25.25703833,83.00790333,0.58678335,
21.2550,0.1010,0.2421,0.9797,-0.3941,0.6232,-1.5218,0.0505,-0.6689,1.0591,25.25703833,83.00790333,0.58678335,
21.2650,0.1250,0.2451,0.9787,-0.3941,0.6232,-1.5218,0.0505,-0.6689,1.0591,25.25703833,83.00790333,0.58678335,
21.2670,0.1250,0.2451,0.9787,-0.3941,0.6232,-1.5218,-0.1183,-0.8409,1.5493,25.25703833,83.00790333,0.58678335,
21.2740,0.1420,0.2532,0.9587,-0.3941,0.6232,-1.5218,-0.1183,-0.8409,1.5493,25.25703833,83.00790333,0.58678335,
21.2750,0.1420,0.2532,0.9587,-0.3941,0.6232,-1.5218,-0.2035,-1.0080,1.8299,25.25703833,83.00790333,0.58678335,
21.2840,0.1610,0.2571,0.9126,-0.3941,0.6232,-1.5218,-0.2035,-1.0080,1.8299,25.25703833,83.00790333,0.58678335,
21.2850,0.1610,0.2571,0.9126,-0.3941,0.6232,-1.5218,-0.2166,-1.1557,1.9703,25.25703833,83.00790333,0.58678335,
21.2860,0.1610,0.2571,0.9126,2.1792,-0.1956,-0.4608,-0.2166,-1.1557,1.9703,25.25703833,83.00790333,0.58678335,
21.2940,0.1701,0.2632,0.8746,2.1792,-0.1956,-0.4608,-0.2166,-1.1557,1.9703,25.25703833,83.00790333,0.58678335,
21.2950,0.1701,0.2632,0.8746,2.1792,-0.1956,-0.4608,-0.1729,-1.2741,1.9976,25.25703833,83.00790333,0.58678335,
21.3040,0.1681,0.2761,0.8786,2.1792,-0.1956,-0.4608,-0.1729,-1.2741,1.9976,25.25703833,83.00790333,0.58678335,
21.3060,0.1681,0.2761,0.8786,2.1792,-0.1956,-0.4608,-0.1013,-1.3535,1.9289,25.25703833,83.00790333,0.58678335,
21.3140,0.1531,0.2892,0.9346,2.1792,-0.1956,-0.4608,-0.1013,-1.3535,1.9289,25.25703833,83.00790333,0.58678335,
21.3150,0.1531,0.2892,0.9346,2.1792,-0.1956,-0.4608,-0.0323,-1.3774,1.7924,25.25703833,83.00790333,0.58678335,
21.3240,0.1331,0.2911,1.0247,2.1792,-0.1956,-0.4608,-0.0323,-1.3774,1.7924,25.25703833,83.00790333,0.58678335,
21.3250,0.1331,0.2911,1.0247,2.1792,-0.1956,-0.4608,-0.0015,-1.3317,1.6365,25.25703833,83.00790333,0.58678335,
21.3340,0.1040,0.2861,1.1107,2.1792,-0.1956,-0.4608,-0.0015,-1.3317,1.6365,25.25703833,83.00790333,0.58678335,
21.3350,0.1040,0.2861,1.1107,2.1792,-0.1956,-0.4608,-0.0266,-1.2015,1.5059,25.25703833,83.00790333,0.58678335,
21.3440,0.0820,0.2871,1.1988,2.1792,-0.1956,-0.4608,-0.0266,-1.2015,1.5059,25.25703833,83.00790333,0.58678335,
21.3450,0.0820,0.2871,1.1988,2.1792,-0.1956,-0.4608,-0.0950,-1.0116,1.3736,25.25703833,83.00790333,0.58678335,
21.3460,0.0820,0.2871,1.1988,0.4314,0.1125,2.3284,-0.0950,-1.0116,1.3736,25.25703833,83.00790333,0.58678335,
21.3540,0.0790,0.3171,1.2589,0.4314,0.1125,2.3284,-0.0950,-1.0116,1.3736,25.25703833,83.00790333,0.58678335,
21.3550,0.0790,0.3171,1.2589,0.4314,0.1125,2.3284,-0.1513,-0.8161,1.2166,25.25703833,83.00790333,0.58678335,
21.3640,0.0750,0.3592,1.2398,0.4314,0.1125,2.3284,-0.1513,-0.8161,1.2166,25.25703833,83.00790333,0.58678335,
21.3660,0.0750,0.3592,1.2398,0.4314,0.1125,2.3284,-0.1419,-0.6619,0.9737,25.25703833,83.00790333,0.58678335,
21.3740,0.0931,0.3833,1.1858,0.4314,0.1125,2.3284,-0.1419,-0.6619,0.9737,25.25703833,83.00790333,0.58678335,
21.3750,0.0931,0.3833,1.1858,0.4314,0.1125,2.3284,-0.0654,-0.5647,0.7047,25.25703833,83.00790333,0.58678335,
21.3840,0.1291,0.3942,1.1238,0.4314,0.1125,2.3284,-0.0654,-0.5647,0.7047,25.25703833,83.00790333,0.58678335,
21.3860,0.1291,0.3942,1.1238,0.4314,0.1125,2.3284,0.0503,-0.5469,0.4622,25.25703833,83.00790333,0.58678335,
21.3940,0.1381,0.4062,1.0778,0.4314,0.1125,2.3284,0.0503,-0.5469,0.4622,25.25703833,83.00790333,0.58678335,
21.3940,0.1381,0.4062,1.0778,0.4314,0.1125,2.3284,0.1838,-0.5798,0.2189,25.25703833,83.00790333,0.58678335,
21.4040,0.1231,0.4022,1.1138,0.4314,0.1125,2.3284,0.1838,-0.5798,0.2189,25.25703833,83.00790333,0.58678335,
21.4090,0.1231,0.4022,1.1138,0.4314,0.1125,2.3284,0.2798,-0.5952,0.0145,25.25703833,83.00790333,0.58678335,
21.4100,0.1231,0.4022,1.1138,0.5087,1.1606,1.5373,0.2798,-0.5952,0.0145,25.25703833,83.00790333,0.58678335,
21.4140,0.1090,0.3733,1.2508,0.5087,1.1606,1.5373,0.2798,-0.5952,0.0145,25.25703833,83.00790333,0.58678335,
21.4160,0.1090,0.3733,1.2508,0.5087,1.1606,1.5373,0.2769,-0.5413,-0.0640,25.25703833,83.00790333,0.58678335,
21.4240,0.1081,0.3171,1.4169,0.5087,1.1606,1.5373,0.2769,-0.5413,-0.0640,25.25703833,83.00790333,0.58678335,
21.4260,0.1081,0.3171,1.4169,0.5087,1.1606,1.5373,0.1373,-0.4086,0.0426,25.25703833,83.00790333,0.58678335,
21.4340,0.0931,0.2671,1.5370,0.5087,1.1606,1.5373,0.1373,-0.4086,0.0426,25.25703833,83.00790333,0.58678335,
21.4360,0.0931,0.2671,1.5370,0.5087,1.1606,1.5373,-0.1084,-0.2277,0.2572,25.25703833,83.00790333,0.58678335,
21.4440,0.0750,0.2311,1.6061,0.5087,1.1606,1.5373,-0.1084,-0.2277,0.2572,25.25703833,83.00790333,0.58678335,
21.4450,0.0750,0.2311,1.6061,0.5087,1.1606,1.5373,-0.3929,-0.0275,0.4965,25.25703833,83.00790333,0.58678335,
21.4540,0.0430,0.2071,1.6031,0.5087,1.1606,1.5373,-0.3929,-0.0275,0.4965,25.25703833,83.00790333,0.58678335,
21.4550,0.0430,0.2071,1.6031,0.5087,1.1606,1.5373,-0.6447,0.1756,0.7099,25.25703833,83.00790333,0.58678335,
21.4640,0.0030,0.2031,1.5010,0.5087,1.1606,1.5373,-0.6447,0.1756,0.7099,25.25703833,83.00790333,0.58678335,
21.4660,0.0030,0.2031,1.5010,0.5087,1.1606,1.5373,-0.8112,0.3562,0.8125,25.25703833,83.00790333,0.58678335,
21.4660,0.0030,0.2031,1.5010,-0.6590,-0.4200,5.2296,-0.8112,0.3562,0.8125,25.25703833,83.00790333,0.58678335,
21.4740,-0.0380,0.2221,1.3749,-0.6590,-0.4200,5.2296,-0.8112,0.3562,0.8125,25.25703833,83.00790333,0.58678335,
21.4750,-0.0380,0.2221,1.3749,-0.6590,-0.4200,5.2296,-0.8648,0.4958,0.7379,25.25703833,83.00790333,0.58678335,
21.4840,-0.0650,0.2401,1.2799,-0.6590,-0.4200,5.2296,-0.8648,0.4958,0.7379,25.25703833,83.00790333,0.58678335,
21.4850,-0.0650,0.2401,1.2799,-0.6590,-0.4200,5.2296,-0.8221,0.6078,0.5777,25.25703833,83.00790333,0.58678335,
21.4940,-0.0790,0.2421,1.2318,-0.6590,-0.4200,5.2296,-0.8221,0.6078,0.5777,25.25703833,83.00790333,0.58678335,
21.4960,-0.0790,0.2421,1.2318,-0.6590,-0.4200,5.2296,-0.7328,0.6857,0.3697,25.25703833,83.00790333,0.58678335,
21.5040,-0.0900,0.2311,1.2038,-0.6590,-0.4200,5.2296,-0.7328,0.6857,0.3697,25.25703833,83.00790333,0.58678335,
21.5050,-0.0900,0.2311,1.2038,-0.6590,-0.4200,5.2296,-0.6412,0.7414,0.1742,25.25703833,83.00790333,0.58678335,
21.5140,-0.0950,0.2131,1.1948,-0.6590,-0.4200,5.2296,-0.6412,0.7414,0.1742,25.25703833,83.00790333,0.58678335,
21.5160,-0.0950,0.2131,1.1948,-0.6590,-0.4200,5.2296,-0.5705,0.7817,0.0150,25.25703833,83.00790333,0.58678335,
21.5270,-0.0860,0.1901,1.1858,-0.6590,-0.4200,5.2296,-0.5705,0.7817,0.0150,25.25703833,83.00790333,0.58678335,
21.5280,-0.0860,0.1901,1.1858,-0.6590,-0.4200,5.2296,-0.5331,0.8003,-0.0715,25.25703833,83.00790333,0.58678335,
21.5290,-0.0860,0.1901,1.1858,-1.0627,-0.1930,2.0356,-0.5331,0.8003,-0.0715,25.25703833,83.00790333,0.58678335,
21.5360,-0.0720,0.1660,1.1628,-1.0627,-0.1930,2.0356,-0.5331,0.8003,-0.0715,25.25703833,83.00790333,0.58678335,
21.5380,-0.0720,0.1660,1.1628,-1.0627,-0.1930,2.0356,-0.5291,0.7936,-0.0775,25.25703833,83.00790333,0.58678335,
21.5470,-0.0710,0.1441,1.1088,-1.0627,-0.1930,2.0356,-0.5291,0.7936,-0.0775,25.25703833,83.00790333,0.58678335,
21.5480,-0.0710,0.1441,1.1088,-1.0627,-0.1930,2.0356,-0.5395,0.7752,-0.0349,25.25703333,83.00789500,0.65009415,
21.5540,-0.0660,0.1291,1.0277,-1.0627,-0.1930,2.0356,-0.5395,0.7752,-0.0349,25.25703333,83.00789500,0.65009415,
21.5550,-0.0660,0.1291,1.0277,-1.0627,-0.1930,2.0356,-0.5496,0.7408,0.0155,25.25703333,83.00789500,0.65009415,
21.5640,-0.0690,0.1220,0.9366,-1.0627,-0.1930,2.0356,-0.5496,0.7408,0.0155,25.25703333,83.00789500,0.65009415,
21.5650,-0.0690,0.1220,0.9366,-1.0627,-0.1930,2.0356,-0.5465,0.7083,0.0611,25.25703333,83.00789500,0.65009415,
21.5740,-0.0790,0.1200,0.8906,-1.0627,-0.1930,2.0356,-0.5465,0.7083,0.0611,25.25703333,83.00789500,0.65009415,
21.5750,-0.0790,0.1200,0.8906,-1.0627,-0.1930,2.0356,-0.5272,0.6812,0.0717,25.25703333,83.00789500,0.65009415,
21.5840,-0.0810,0.1110,0.8686,-1.0627,-0.1930,2.0356,-0.5272,0.6812,0.0717,25.25703333,83.00789500,0.65009415,
21.5850,-0.0810,0.1110,0.8686,-1.0627,-0.1930,2.0356,-0.5067,0.6635,0.0786,25.25703333,83.00789500,0.65009415,
21.5860,-0.0810,0.1110,0.8686,-0.6222,-0.6636,-1.1354,-0.5067,0.6635,0.0786,25.25703333,83.00789500,0.65009415,
21.5940,-0.0810,0.1050,0.8386,-0.6222,-0.6636,-1.1354,-0.5067,0.6635,0.0786,25.25703333,83.00789500,0.65009415,
21.5960,-0.0810,0.1050,0.8386,-0.6222,-0.6636,-1.1354,-0.4852,0.6487,0.0874,25.25703333,83.00789500,0.65009415,
21.6040,-0.0770,0.0960,0.7935,-0.6222,-0.6636,-1.1354,-0.4852,0.6487,0.0874,25.25703333,83.00789500,0.65009415,
21.6040,-0.0770,0.0960,0.7935,-0.6222,-0.6636,-1.1354,-0.4686,0.6331,0.0974,25.25703333,83.00789500,0.65009415,
21.6140,-0.0760,0.0950,0.7305,-0.6222,-0.6636,-1.1354,-0.4686,0.6331,0.0974,25.25703333,83.00789500,0.65009415,
21.6160,-0.0760,0.0950,0.7305,-0.6222,-0.6636,-1.1354,-0.4423,0.6107,0.0790,25.25703333,83.00789500,0.65009415,
21.6240,-0.0770,0.0950,0.6635,-0.6222,-0.6636,-1.1354,-0.4423,0.6107,0.0790,25.25703333,83.00789500,0.65009415,
21.6280,-0.0770,0.0950,0.6635,-0.6222,-0.6636,-1.1354,-0.3998,0.5889,0.0416,25.25703333,83.00789500,0.65009415,
21.6340,-0.0770,0.1000,0.6164,-0.6222,-0.6636,-1.1354,-0.3998,0.5889,0.0416,25.25703333,83.00789500,0.65009415,
21.6340,-0.0770,0.1000,0.6164,-0.6222,-0.6636,-1.1354,-0.3381,0.5685,-0.0243,25.25703333,83.00789500,0.65009415,
21.6440,-0.0710,0.1040,0.6004,-0.6222,-0.6636,-1.1354,-0.3381,0.5685,-0.0243,25.25703333,83.00789500,0.65009415,
21.6460,-0.0710,0.1040,0.6004,-0.6222,-0.6636,-1.1354,-0.2689,0.5470,-0.0740,25.25703333,83.00789500,0.65009415,
21.6470,-0.0710,0.1040,0.6004,-0.1947,-0.5411,-3.7840,-0.2689,0.5470,-0.0740,25.25703333,83.00789500,0.65009415,
21.6540,-0.0640,0.1081,0.6184,-0.1947,-0.5411,-3.7840,-0.2689,0.5470,-0.0740,25.25703333,83.00789500,0.65009415,
21.6540,-0.0640,0.1081,0.6184,-0.1947,-0.5411,-3.7840,-0.2000,0.5127,-0.1091,25.25703333,83.00789500,0.65009415,
21.6640,-0.0630,0.1170,0.6654,-0.1947,-0.5411,-3.7840,-0.2000,0.5127,-0.1091,25.25703333,83.00789500,0.65009415,
21.6650,-0.0630,0.1170,0.6654,-0.1947,-0.5411,-3.7840,-0.1398,0.4685,-0.1609,25.25703333,83.00789500,0.65009415,
21.6740,-0.0670,0.1241,0.7195,-0.1947,-0.5411,-3.7840,-0.1398,0.4685,-0.1609,25.25703333,83.00789500,0.65009415,
21.6750,-0.0670,0.1241,0.7195,-0.1947,-0.5411,-3.7840,-0.0882,0.4180,-0.2217,25.25703333,83.00789500,0.65009415,
21.6840,-0.0720,0.1350,0.7605,-0.1947,-0.5411,-3.7840,-0.0882,0.4180,-0.2217,25.25703333,83.00789500,0.65009415,
21.6850,-0.0720,0.1350,0.7605,-0.1947,-0.5411,-3.7840,-0.0442,0.3793,-0.2538,25.25703333,83.00789500,0.65009415,
21.6940,-0.0680,0.1391,0.7755,-0.1947,-0.5411,-3.7840,-0.0442,0.3793,-0.2538,25.25703333,83.00789500,0.65009415,
21.6960,-0.0680,0.1391,0.7755,-0.1947,-0.5411,-3.7840,-0.0013,0.3311,-0.3034,25.25703333,83.00789500,0.65009415,
21.7040,-0.0730,0.1510,0.7524,-0.1947,-0.5411,-3.7840,-0.0013,0.3311,-0.3034,25.25703333,83.00789500,0.65009415,
21.7040,-0.0730,0.1510,0.7524,-0.1947,-0.5411,-3.7840,0.0610,0.2853,-0.3847,25.25703333,83.00789500,0.65009415,
21.7050,-0.0730,0.1510,0.7524,0.0048,-0.0864,-2.2797,0.0610,0.2853,-0.3847,25.25703333,83.00789500,0.65009415,
21.7140,-0.0850,0.1710,0.7135,0.0048,-0.0864,-2.2797,0.0610,0.2853,-0.3847,25.25703333,83.00789500,0.65009415,
21.7160,-0.0850,0.1710,0.7135,0.0048,-0.0864,-2.2797,0.1642,0.2567,-0.5251,25.25703333,83.00789500,0.65009415,
21.7240,-0.0920,0.1911,0.6895,0.0048,-0.0864,-2.2797,0.1642,0.2567,-0.5251,25.25703333,83.00789500,0.65009415,
21.7240,-0.0920,0.1911,0.6895,0.0048,-0.0864,-2.2797,0.3110,0.2352,-0.7381,25.25703333,83.00789500,0.65009415,
21.7340,-0.0950,0.1991,0.7045,0.0048,-0.0864,-2.2797,0.3110,0.2352,-0.7381,25.25703333,83.00789500,0.65009415,
21.7350,-0.0950,0.1991,0.7045,0.0048,-0.0864,-2.2797,0.4617,0.2171,-0.9347,25.25703333,83.00789500,0.65009415,
21.7440,-0.0981,0.2031,0.7615,0.0048,-0.0864,-2.2797,0.4617,0.2171,-0.9347,25.25703333,83.00789500,0.65009415,
21.7460,-0.0981,0.2031,0.7615,0.0048,-0.0864,-2.2797,0.5772,0.1914,-1.1076,25.25703333,83.00789500,0.65009415,
21.7540,-0.1060,0.2061,0.8136,0.0048,-0.0864,-2.2797,0.5772,0.1914,-1.1076,25.25703333,83.00789500,0.65009415,
21.7540,-0.1060,0.2061,0.8136,0.0048,-0.0864,-2.2797,0.6379,0.1788,-1.1817,25.25703333,83.00789500,0.65009415,
21.7640,-0.1140,0.2071,0.8376,0.0048,-0.0864,-2.2797,0.6379,0.1788,-1.1817,25.25703333,83.00789500,0.65009415,
21.7650,-0.1140,0.2071,0.8376,0.0048,-0.0864,-2.2797,0.6578,0.1777,-1.1839,25.25703333,83.00789500,0.65009415,
