time,gFx,gFy,gFz,ax,ay,az,wx,wy,wz,P
1.198,-0.07,0.36,0.92,0.04,-0.10,-0.06,0.04,-0.02,-0.01,0.00
1.237,-0.07,0.36,0.92,0.04,-0.10,-0.06,-0.03,-0.05,-0.01,0.00
1.237,-0.06,0.37,0.91,0.04,-0.10,-0.06,-0.03,-0.05,-0.01,0.00
1.238,-0.06,0.37,0.91,-0.01,0.02,-0.15,-0.03,-0.05,-0.01,0.00
1.277,-0.06,0.37,0.91,0.15,0.00,0.01,-0.03,-0.05,-0.01,0.00
1.316,-0.06,0.37,0.91,0.15,0.00,0.01,-0.02,-0.03,0.00,0.00
1.317,-0.04,0.37,0.93,0.15,0.00,0.01,-0.02,-0.03,0.00,0.00
1.317,-0.04,0.37,0.93,0.22,-0.01,0.06,-0.02,-0.03,0.00,0.00
1.356,-0.04,0.37,0.93,0.03,-0.07,0.11,-0.02,-0.03,0.00,0.00
1.356,-0.04,0.36,0.91,0.03,-0.07,0.11,-0.02,-0.03,0.00,0.00
1.395,-0.04,0.36,0.91,0.03,-0.07,0.11,-0.01,-0.03,-0.03,0.00
1.396,-0.04,0.36,0.91,0.21,-0.06,-0.20,-0.01,-0.03,-0.03,0.00
1.435,-0.04,0.36,0.91,0.19,0.02,0.16,-0.01,-0.03,-0.03,0.00
1.435,-0.04,0.36,0.91,0.19,0.02,0.16,-0.01,-0.03,-0.04,0.00
1.436,-0.04,0.37,0.93,0.19,0.02,0.16,-0.01,-0.03,-0.04,0.00
1.474,-0.04,0.37,0.93,0.02,0.00,0.00,-0.01,-0.03,-0.04,0.00
1.514,-0.04,0.37,0.93,0.02,0.00,0.00,0.01,0.01,-0.04,0.00
1.515,-0.05,0.37,0.91,0.02,0.00,0.00,0.01,0.01,-0.04,0.00
1.515,-0.05,0.37,0.91,0.04,-0.02,-0.07,0.01,0.01,-0.04,0.00
1.553,-0.05,0.37,0.91,0.05,0.04,-0.10,0.01,0.01,-0.04,0.00
1.554,-0.04,0.37,0.95,0.05,0.04,-0.10,0.01,0.01,-0.04,0.00
1.593,-0.04,0.37,0.95,0.05,0.04,-0.10,-0.01,-0.02,-0.04,0.00
1.593,-0.04,0.37,0.95,0.08,-0.01,0.27,-0.01,-0.02,-0.04,0.00
1.633,-0.04,0.37,0.95,0.05,-0.00,0.01,-0.01,-0.02,-0.04,0.00
1.634,-0.05,0.37,0.92,0.05,-0.00,0.01,-0.01,-0.02,-0.04,0.00
1.634,-0.05,0.37,0.92,0.05,-0.00,0.01,0.03,-0.01,-0.05,0.00
1.672,-0.05,0.37,0.92,-0.04,0.02,-0.14,0.03,-0.01,-0.05,0.00
1.712,-0.05,0.37,0.92,-0.04,0.02,-0.14,0.03,-0.01,-0.05,0.00
1.712,-0.05,0.37,0.92,-0.04,0.02,-0.14,0.02,-0.02,-0.04,0.00
1.713,-0.05,0.37,0.92,-0.01,0.02,-0.00,0.02,-0.02,-0.04,0.00
1.752,-0.05,0.36,0.92,-0.01,0.02,-0.00,0.02,-0.02,-0.04,0.00
1.753,-0.05,0.36,0.92,-0.04,-0.03,0.07,0.02,-0.02,-0.04,0.00
1.791,-0.05,0.36,0.92,-0.04,-0.03,0.07,0.01,-0.01,-0.02,0.00
1.792,-0.05,0.36,0.92,-0.00,-0.04,-0.05,0.01,-0.01,-0.02,0.00
1.831,-0.05,0.36,0.92,-0.00,-0.04,-0.05,0.01,0.01,-0.00,0.00
1.832,-0.04,0.36,0.92,-0.00,-0.04,-0.05,0.01,0.01,-0.00,0.00
1.832,-0.04,0.36,0.92,0.09,-0.03,-0.07,0.01,0.01,-0.00,0.00
1.87,-0.04,0.36,0.92,0.10,-0.03,0.06,0.01,0.01,-0.00,0.00
1.91,-0.04,0.36,0.92,0.10,-0.03,0.06,-0.00,0.01,-0.02,0.00
1.911,-0.05,0.36,0.92,0.10,-0.03,0.06,-0.00,0.01,-0.02,0.00
1.911,-0.05,0.36,0.92,0.03,-0.05,0.06,-0.00,0.01,-0.02,0.00
1.949,-0.05,0.36,0.92,-0.00,-0.06,-0.08,-0.00,0.01,-0.02,0.00
1.95,-0.04,0.37,0.92,-0.00,-0.06,-0.08,-0.00,0.01,-0.02,0.00
1.989,-0.04,0.37,0.92,0.10,0.01,-0.02,-0.00,0.01,-0.02,0.00
1.99,-0.04,0.37,0.92,0.10,0.01,-0.02,0.01,-0.02,-0.02,0.00
2.029,-0.04,0.37,0.92,0.10,0.01,-0.02,-0.01,-0.00,-0.04,0.00
2.029,-0.04,0.37,0.92,0.03,-0.00,-0.05,-0.01,-0.00,-0.04,0.00
2.03,-0.04,0.36,0.92,0.03,-0.00,-0.05,-0.01,-0.00,-0.04,0.00
2.069,-0.04,0.36,0.92,0.10,-0.03,0.07,-0.01,-0.00,-0.04,0.00
2.108,-0.04,0.36,0.92,-0.04,-0.02,0.07,-0.01,-0.00,-0.04,0.00
2.109,-0.05,0.36,0.93,-0.04,-0.02,0.07,-0.01,-0.00,-0.04,0.00
2.109,-0.05,0.36,0.93,-0.04,-0.02,0.07,-0.02,-0.00,-0.05,0.00
2.147,-0.05,0.36,0.93,0.01,0.01,-0.08,-0.02,-0.00,-0.05,0.00
2.186,-0.05,0.36,0.93,0.01,0.01,-0.08,-0.00,0.01,-0.03,0.00
2.188,-0.07,0.37,0.93,0.01,0.01,-0.08,-0.00,0.01,-0.03,0.00
2.188,-0.07,0.37,0.93,-0.16,0.02,0.04,-0.00,0.01,-0.03,0.00
2.226,-0.07,0.37,0.93,-0.16,0.02,0.04,-0.00,-0.00,-0.02,0.00
2.227,-0.06,0.36,0.93,-0.16,0.02,0.04,-0.00,-0.00,-0.02,0.00
2.228,-0.06,0.36,0.93,-0.01,-0.00,0.03,-0.00,-0.00,-0.02,0.00
2.266,-0.06,0.36,0.93,-0.06,0.02,0.10,-0.00,-0.00,-0.02,0.00
2.305,-0.06,0.36,0.93,-0.06,0.02,0.10,0.02,0.02,-0.02,0.00
2.306,-0.06,0.37,0.91,-0.06,0.02,0.10,0.02,0.02,-0.02,0.00
2.306,-0.06,0.37,0.91,-0.05,0.03,-0.02,0.02,0.02,-0.02,0.00
2.345,-0.06,0.37,0.91,-0.01,-0.00,-0.25,0.02,0.02,-0.02,0.00
2.384,-0.06,0.37,0.91,-0.01,-0.00,-0.25,0.02,0.01,-0.01,0.00
2.385,-0.05,0.36,0.93,-0.01,-0.00,-0.25,0.02,0.01,-0.01,0.00
2.385,-0.05,0.36,0.93,0.03,-0.04,0.06,0.02,0.01,-0.01,0.00
2.424,-0.05,0.36,0.93,-0.01,-0.04,0.27,0.02,0.01,-0.01,0.00
2.425,-0.06,0.36,0.94,-0.01,-0.04,0.27,0.02,0.01,-0.01,0.00
2.464,-0.06,0.36,0.94,0.02,-0.02,0.12,0.02,0.01,-0.01,0.00
2.464,-0.06,0.36,0.94,0.02,-0.02,0.12,-0.01,0.03,-0.02,0.00
2.503,-0.06,0.36,0.94,0.02,-0.02,0.12,0.01,0.02,-0.02,0.00
2.504,-0.06,0.37,0.93,0.02,-0.02,0.12,0.01,0.02,-0.02,0.00
2.504,-0.06,0.37,0.93,0.04,0.01,0.02,0.01,0.02,-0.02,0.00
2.543,-0.06,0.37,0.93,0.02,0.03,0.02,0.01,0.02,-0.02,0.00
2.582,-0.06,0.37,0.91,0.02,0.03,0.02,0.01,0.02,-0.02,0.00
2.582,-0.06,0.37,0.91,0.02,0.03,0.02,0.01,0.03,-0.02,0.00
2.583,-0.06,0.37,0.91,0.07,0.00,-0.13,0.01,0.03,-0.02,0.00
2.622,-0.07,0.37,0.94,0.07,0.00,-0.13,0.01,0.03,-0.02,0.00
2.623,-0.07,0.37,0.94,-0.10,0.02,-0.05,0.01,0.03,-0.02,0.00
2.661,-0.07,0.37,0.94,-0.10,0.02,-0.05,-0.02,0.03,-0.03,0.00
2.662,-0.07,0.37,0.94,-0.01,0.00,0.20,-0.02,0.03,-0.03,0.00
2.701,-0.06,0.37,0.91,-0.01,0.00,0.20,-0.02,0.03,-0.03,0.00
2.702,-0.06,0.37,0.91,-0.01,0.00,0.20,0.06,0.01,-0.01,0.00
2.702,-0.06,0.37,0.91,0.04,-0.04,0.06,0.06,0.01,-0.01,0.00
2.74,-0.06,0.37,0.91,-0.03,0.00,-0.30,0.06,0.01,-0.01,0.00
2.779,-0.06,0.37,0.91,-0.03,0.00,-0.30,-0.01,0.02,-0.01,0.00
2.78,-0.07,0.36,0.94,-0.03,0.00,-0.30,-0.01,0.02,-0.01,0.00
2.781,-0.07,0.36,0.94,-0.02,-0.02,0.12,-0.01,0.02,-0.01,0.00
2.819,-0.07,0.36,0.93,-0.02,-0.02,0.12,-0.01,0.02,-0.01,0.00
2.82,-0.07,0.36,0.93,-0.09,-0.04,0.11,-0.01,0.02,-0.01,0.00
2.859,-0.07,0.36,0.93,-0.09,-0.04,0.11,0.01,0.01,-0.01,0.00
2.86,-0.07,0.36,0.93,0.02,-0.02,0.01,0.01,0.01,-0.01,0.00
2.898,-0.07,0.36,0.93,0.02,-0.02,0.01,0.01,-0.00,-0.00,0.00
2.899,-0.06,0.37,0.91,0.02,-0.02,0.01,0.01,-0.00,-0.00,0.00
2.899,-0.06,0.37,0.91,0.03,-0.02,-0.21,0.01,-0.00,-0.00,0.00
2.938,-0.06,0.37,0.91,0.02,0.01,0.00,0.01,-0.00,-0.00,0.00
2.978,-0.06,0.37,0.91,0.02,0.01,0.00,-0.00,0.01,-0.00,0.00
2.978,-0.07,0.36,0.92,0.02,0.01,0.00,-0.00,0.01,-0.00,0.00
2.979,-0.07,0.36,0.92,0.02,-0.00,0.00,-0.00,0.01,-0.00,0.00
3.017,-0.05,0.36,0.94,0.02,-0.00,0.00,-0.00,0.01,-0.00,0.00
3.018,-0.05,0.36,0.94,-0.02,-0.04,0.06,-0.00,0.01,-0.00,0.00
3.057,-0.05,0.36,0.94,-0.02,-0.04,0.06,-0.01,-0.01,0.01,0.00
3.057,-0.05,0.36,0.94,0.12,-0.04,0.12,-0.01,-0.01,0.01,0.00
3.096,-0.05,0.36,0.94,0.12,-0.04,0.12,0.01,0.01,0.01,0.00
3.096,-0.08,0.37,0.89,0.12,-0.04,0.12,0.01,0.01,0.01,0.00
3.096,-0.08,0.37,0.89,-0.11,-0.01,-0.10,0.01,0.01,0.01,0.00
3.136,-0.08,0.37,0.89,-0.10,0.03,-0.42,0.01,0.01,0.01,0.00
3.178,-0.08,0.37,0.89,-0.10,0.03,-0.42,-0.04,-0.01,0.02,0.00
3.179,-0.07,0.36,0.95,-0.10,0.03,-0.42,-0.04,-0.01,0.02,0.00
3.179,-0.07,0.36,0.95,-0.05,-0.02,0.22,-0.04,-0.01,0.02,0.00
3.215,-0.07,0.37,0.93,-0.05,-0.02,0.22,-0.04,-0.01,0.02,0.00
3.216,-0.07,0.37,0.93,-0.04,0.04,0.23,-0.04,-0.01,0.02,0.00
3.254,-0.07,0.37,0.93,-0.04,0.04,0.23,0.00,0.00,0.01,0.00
3.255,-0.07,0.37,0.93,-0.01,0.02,0.02,0.00,0.00,0.01,0.00
3.294,-0.07,0.37,0.93,-0.00,-0.01,-0.07,0.00,0.00,0.01,0.00
3.295,-0.07,0.37,0.93,-0.00,-0.01,-0.07,0.01,-0.02,0.01,0.00
3.295,-0.06,0.37,0.93,-0.00,-0.01,-0.07,0.01,-0.02,0.01,0.00
3.333,-0.06,0.37,0.93,0.13,0.03,0.08,0.01,-0.02,0.01,0.00
3.373,-0.06,0.37,0.93,0.13,0.03,0.08,0.01,-0.01,0.01,0.00
3.373,-0.07,0.37,0.93,0.13,0.03,0.08,0.01,-0.01,0.01,0.00
3.374,-0.07,0.37,0.93,-0.02,0.06,0.16,0.01,-0.01,0.01,0.00
3.412,-0.07,0.37,0.93,0.02,0.05,-0.15,0.01,-0.01,0.01,0.00
3.452,-0.07,0.37,0.93,0.02,0.05,-0.15,0.03,-0.01,0.01,0.00
3.453,-0.07,0.37,0.92,0.02,0.05,-0.15,0.03,-0.01,0.01,0.00
3.453,-0.07,0.37,0.92,-0.06,-0.00,-0.04,0.03,-0.01,0.01,0.00
3.492,-0.07,0.37,0.92,-0.03,-0.02,-0.10,0.03,-0.01,0.01,0.00
3.492,-0.07,0.37,0.92,-0.03,-0.02,-0.10,0.05,0.03,0.03,0.00
3.493,-0.06,0.37,0.91,-0.03,-0.02,-0.10,0.05,0.03,0.03,0.00
3.531,-0.06,0.37,0.91,0.05,0.03,-0.07,0.05,0.03,0.03,0.00
3.571,-0.06,0.37,0.91,0.05,0.03,-0.07,0.00,0.05,0.01,0.00
3.571,-0.08,0.37,0.93,0.05,0.03,-0.07,0.00,0.05,0.01,0.00
3.572,-0.08,0.37,0.93,-0.15,0.07,-0.30,0.00,0.05,0.01,0.00
3.61,-0.08,0.37,0.93,0.05,-0.04,0.62,0.00,0.05,0.01,0.00
3.649,-0.08,0.37,0.93,0.05,-0.04,0.62,0.04,0.01,-0.01,0.00
3.65,-0.08,0.37,0.93,0.04,0.02,0.04,0.04,0.01,-0.01,0.00
3.65,-0.07,0.38,0.92,0.04,0.02,0.04,0.04,0.01,-0.01,0.00
3.689,-0.07,0.38,0.92,-0.07,0.07,-0.28,0.04,0.01,-0.01,0.00
3.69,-0.06,0.38,0.91,-0.07,0.07,-0.28,0.04,0.01,-0.01,0.00
3.729,-0.06,0.38,0.91,-0.07,0.07,-0.28,0.02,0.03,-0.01,0.00
3.73,-0.06,0.38,0.91,0.12,-0.00,-0.08,0.02,0.03,-0.01,0.00
3.769,-0.06,0.38,0.91,0.12,-0.00,-0.08,-0.01,0.02,0.00,0.00
3.77,-0.07,0.38,0.88,0.12,-0.00,-0.08,-0.01,0.02,0.00,0.00
3.77,-0.07,0.38,0.88,0.05,0.02,-0.23,-0.01,0.02,0.00,0.00
3.809,-0.07,0.38,0.88,0.02,0.03,-0.40,-0.01,0.02,0.00,0.00
3.848,-0.07,0.38,0.88,0.02,0.03,-0.40,-0.05,0.03,0.01,0.00
3.849,-0.08,0.37,0.96,0.02,0.03,-0.40,-0.05,0.03,0.01,0.00
3.849,-0.08,0.37,0.96,-0.09,-0.02,0.55,-0.05,0.03,0.01,0.00
3.887,-0.07,0.38,0.91,-0.09,-0.02,0.55,-0.05,0.03,0.01,0.00
3.888,-0.07,0.38,0.91,0.08,0.07,-0.10,-0.05,0.03,0.01,0.00
3.927,-0.07,0.38,0.91,0.08,0.07,-0.10,0.00,0.04,0.02,0.00
3.928,-0.07,0.38,0.91,0.06,0.08,-0.04,0.00,0.04,0.02,0.00
3.966,-0.07,0.38,0.91,0.06,0.08,-0.04,-0.02,0.04,0.00,0.00
3.967,-0.07,0.39,0.90,0.06,0.08,-0.04,-0.02,0.04,0.00,0.00
3.968,-0.07,0.39,0.90,-0.01,0.06,0.01,-0.02,0.04,0.00,0.00
4.006,-0.07,0.39,0.90,0.15,0.17,-0.29,-0.02,0.04,0.00,0.00
4.046,-0.07,0.39,0.90,0.15,0.17,-0.29,0.00,0.13,-0.03,0.00
4.047,-0.10,0.43,0.91,0.15,0.17,-0.29,0.00,0.13,-0.03,0.00
4.047,-0.10,0.43,0.91,0.09,0.41,0.12,0.00,0.13,-0.03,0.00
4.084,-0.11,0.46,0.86,0.09,0.41,0.12,0.00,0.13,-0.03,0.00
4.085,-0.11,0.46,0.86,-0.79,0.73,-0.40,0.00,0.13,-0.03,0.00
4.125,-0.11,0.46,0.86,-0.79,0.73,-0.40,0.15,0.27,0.08,0.00
4.125,-0.11,0.46,0.86,-0.02,0.66,-0.43,0.15,0.27,0.08,0.00
4.164,-0.11,0.46,0.86,-0.02,0.66,-0.43,0.15,0.28,0.15,0.00
4.165,-0.11,0.46,0.86,-0.29,0.61,0.41,0.15,0.28,0.15,0.00
4.165,-0.15,0.48,0.93,-0.29,0.61,0.41,0.15,0.28,0.15,0.00
4.203,-0.15,0.48,0.93,-0.30,0.65,0.20,0.15,0.28,0.15,0.00
4.243,-0.15,0.48,0.93,-0.30,0.65,0.20,0.55,0.61,0.25,0.00
4.244,-0.14,0.49,0.74,-0.30,0.65,0.20,0.55,0.61,0.25,0.00
4.244,-0.14,0.49,0.74,-0.02,0.57,-0.78,0.55,0.61,0.25,0.00
4.286,-0.14,0.49,0.74,0.59,0.00,-2.73,0.55,0.61,0.25,0.00
4.287,-0.06,0.48,0.52,0.59,0.00,-2.73,0.55,0.61,0.25,0.00
4.322,-0.06,0.48,0.52,0.59,0.00,-2.73,0.57,1.09,0.24,0.00
4.323,-0.06,0.48,0.52,1.50,0.03,-3.13,0.57,1.09,0.24,0.00
4.362,-0.06,0.48,0.52,1.50,0.03,-3.13,-0.14,1.45,-0.07,0.00
4.362,-0.14,0.26,0.59,1.50,0.03,-3.13,-0.14,1.45,-0.07,0.00
4.363,-0.14,0.26,0.59,0.71,-0.75,-2.21,-0.14,1.45,-0.07,0.00
4.401,-0.14,0.26,0.59,2.11,-2.73,-1.95,-0.14,1.45,-0.07,0.00
4.441,-0.14,0.26,0.59,2.86,-3.92,-3.64,-0.14,1.45,-0.07,0.00
4.442,-0.14,0.03,0.17,2.86,-3.92,-3.64,-0.14,1.45,-0.07,0.00
4.442,-0.14,0.03,0.17,2.86,-3.92,-3.64,0.55,2.74,-0.52,0.00
4.481,-0.14,0.03,0.17,4.10,-4.98,-7.99,0.55,2.74,-0.52,0.00
4.521,-0.14,0.03,0.17,1.44,-6.26,-6.64,0.55,2.74,-0.52,0.00
4.522,-0.14,0.03,0.17,1.44,-6.26,-6.64,0.17,3.41,-1.62,0.00
4.522,-0.52,-0.27,-0.12,1.44,-6.26,-6.64,0.17,3.41,-1.62,0.00
4.56,-0.52,-0.27,-0.12,1.44,-6.26,-6.64,-1.17,2.97,-2.61,0.00
4.56,-0.52,-0.27,-0.12,-1.07,-6.88,-2.34,-1.17,2.97,-2.61,0.00
4.561,-0.86,-0.63,0.08,-1.07,-6.88,-2.34,-1.17,2.97,-2.61,0.00
4.599,-0.86,-0.63,0.08,-0.32,-8.14,-3.80,-1.17,2.97,-2.61,0.00
4.639,-1.35,-1.08,0.30,-0.32,-8.14,-3.80,-1.17,2.97,-2.61,0.00
4.639,-1.35,-1.08,0.30,-0.32,-8.14,-3.80,-2.09,2.90,-3.61,0.00
4.64,-1.35,-1.08,0.30,-3.30,-9.58,-0.67,-2.09,2.90,-3.61,0.00
4.677,-1.35,-1.08,0.30,-6.33,-8.91,2.02,-2.09,2.90,-3.61,0.00
4.717,-1.35,-1.08,0.30,-6.33,-8.91,2.02,-2.51,1.77,-4.21,0.00
4.718,-1.42,-1.23,0.28,-6.33,-8.91,2.02,-2.51,1.77,-4.21,0.00
4.718,-1.42,-1.23,0.28,-5.57,-7.85,0.93,-2.51,1.77,-4.21,0.00
4.757,-1.43,-1.17,0.88,-5.57,-7.85,0.93,-2.51,1.77,-4.21,0.00
4.758,-1.43,-1.17,0.88,-6.07,-6.60,5.42,-2.51,1.77,-4.21,0.00
4.796,-1.43,-1.17,0.88,-6.07,-6.60,5.42,-3.06,0.42,-4.08,0.00
4.797,-1.43,-1.17,0.88,-7.23,-4.40,9.01,-3.06,0.42,-4.08,0.00
4.836,-1.43,-1.17,0.88,-7.23,-4.40,9.01,-1.46,0.72,-3.67,0.00
4.837,-1.43,-1.17,0.88,-7.93,-1.83,6.35,-1.46,0.72,-3.67,0.00
4.838,-1.44,-0.92,0.60,-7.93,-1.83,6.35,-1.46,0.72,-3.67,0.00
4.876,-1.44,-0.92,0.60,-9.40,0.31,6.00,-1.46,0.72,-3.67,0.00
4.915,-1.44,-0.92,0.60,-9.40,0.31,6.00,-0.87,0.21,-2.89,0.00
4.916,-1.44,-0.92,0.60,-11.19,2.77,6.46,-0.87,0.21,-2.89,0.00
4.917,-1.58,-0.60,0.56,-11.19,2.77,6.46,-0.87,0.21,-2.89,0.00
4.955,-1.58,-0.60,0.56,-10.69,4.56,3.63,-0.87,0.21,-2.89,0.00
4.956,-1.36,-0.36,0.36,-10.69,4.56,3.63,-0.87,0.21,-2.89,0.00
4.995,-1.36,-0.36,0.36,-10.69,4.56,3.63,-0.53,-0.51,-1.44,0.00
4.995,-1.36,-0.36,0.36,-9.02,5.74,4.24,-0.53,-0.51,-1.44,0.00
5.034,-1.36,-0.36,0.36,-9.02,5.74,4.24,-0.29,-1.01,-0.53,0.00
5.035,-1.25,-0.35,0.61,-9.02,5.74,4.24,-0.29,-1.01,-0.53,0.00
5.035,-1.25,-0.35,0.61,-7.51,5.63,6.14,-0.29,-1.01,-0.53,0.00
5.073,-1.25,-0.35,0.61,-8.97,5.54,6.22,-0.29,-1.01,-0.53,0.00
5.113,-1.25,-0.35,0.61,-11.26,5.74,2.80,-0.29,-1.01,-0.53,0.00
5.114,-1.62,-0.34,0.37,-11.26,5.74,2.80,-0.29,-1.01,-0.53,0.00
5.115,-1.62,-0.34,0.37,-11.26,5.74,2.80,0.99,-0.50,-0.03,0.00
5.152,-1.86,-0.59,0.56,-11.26,5.74,2.80,0.99,-0.50,-0.03,0.00
5.153,-1.86,-0.59,0.56,-12.21,4.15,3.55,0.99,-0.50,-0.03,0.00
5.192,-1.86,-0.59,0.56,-12.21,4.15,3.55,1.26,0.35,1.22,0.00
5.193,-1.86,-0.59,0.56,-12.51,1.95,4.11,1.26,0.35,1.22,0.00
5.232,-1.86,-0.59,0.56,-12.51,1.95,4.11,1.81,0.25,3.02,0.00
5.233,-1.53,-1.17,0.63,-12.51,1.95,4.11,1.81,0.25,3.02,0.00
5.233,-1.53,-1.17,0.63,-9.46,-2.09,3.25,1.81,0.25,3.02,0.00
5.271,-1.53,-1.17,0.63,-5.93,-7.26,4.42,1.81,0.25,3.02,0.00
5.311,-1.53,-1.17,0.63,-6.19,-10.64,2.60,1.81,0.25,3.02,0.00
5.312,-1.53,-1.17,0.63,-6.19,-10.64,2.60,2.61,1.19,3.75,0.00
5.312,-1.59,-1.56,0.47,-6.19,-10.64,2.60,2.61,1.19,3.75,0.00
5.35,-1.44,-1.53,0.27,-6.19,-10.64,2.60,2.61,1.19,3.75,0.00
5.351,-1.44,-1.53,0.27,-6.34,-12.74,0.62,2.61,1.19,3.75,0.00
5.39,-1.44,-1.53,0.27,-6.34,-12.74,0.62,2.02,1.03,4.31,0.00
5.391,-1.44,-1.53,0.27,-3.57,-13.79,0.23,2.02,1.03,4.31,0.00
5.429,-1.04,-1.23,0.41,-3.57,-13.79,0.23,2.02,1.03,4.31,0.00
5.43,-1.04,-1.23,0.41,-3.57,-13.79,0.23,0.75,-0.10,4.27,0.00
5.43,-1.04,-1.23,0.41,-1.33,-13.91,1.08,0.75,-0.10,4.27,0.00
5.469,-1.04,-1.23,0.41,0.90,-12.96,1.57,0.75,-0.10,4.27,0.00
5.509,-1.04,-1.23,0.41,0.90,-12.96,1.57,0.78,-0.31,3.74,0.00
5.51,-0.62,-0.86,0.30,0.90,-12.96,1.57,0.78,-0.31,3.74,0.00
5.51,-0.62,-0.86,0.30,3.04,-12.21,0.56,0.78,-0.31,3.74,0.00
5.548,-0.62,-0.86,0.30,4.41,-11.32,-0.28,0.78,-0.31,3.74,0.00
5.59,-0.62,-0.86,0.30,4.41,-11.32,-0.28,0.86,-0.13,2.95,0.00
5.59,-0.34,-0.61,0.22,4.41,-11.32,-0.28,0.86,-0.13,2.95,0.00
5.591,-0.34,-0.61,0.22,5.31,-10.95,-0.25,0.86,-0.13,2.95,0.00
5.627,-0.34,-0.61,0.22,5.31,-10.95,-0.25,1.09,0.03,2.00,0.00
5.628,-0.01,-0.45,-0.19,5.31,-10.95,-0.25,1.09,0.03,2.00,0.00
5.628,-0.01,-0.45,-0.19,6.42,-10.41,-1.84,1.09,0.03,2.00,0.00
5.666,-0.01,-0.45,-0.19,8.23,-10.06,-4.86,1.09,0.03,2.00,0.00
5.706,-0.01,-0.45,-0.19,9.61,-9.39,-6.35,1.09,0.03,2.00,0.00
5.707,0.19,-0.38,-0.41,9.61,-9.39,-6.35,1.09,0.03,2.00,0.00
5.707,0.19,-0.38,-0.41,9.61,-9.39,-6.35,0.13,-0.22,0.57,0.00
5.745,0.19,-0.38,-0.41,8.84,-9.12,-5.75,0.13,-0.22,0.57,0.00
5.785,0.19,-0.38,-0.41,6.05,-10.62,-1.88,0.13,-0.22,0.57,0.00
5.786,-0.18,-0.65,0.05,6.05,-10.62,-1.88,0.13,-0.22,0.57,0.00
5.786,-0.18,-0.65,0.05,6.05,-10.62,-1.88,-1.39,-0.03,-1.12,0.00
5.824,-0.18,-0.65,0.05,6.05,-10.62,-1.88,-1.91,0.12,-2.66,0.00
5.825,-0.49,-0.96,0.08,6.05,-10.62,-1.88,-1.91,0.12,-2.66,0.00
5.826,-0.49,-0.96,0.08,4.37,-11.54,-2.97,-1.91,0.12,-2.66,0.00
5.864,-0.49,-0.96,0.08,3.28,-11.27,-1.56,-1.91,0.12,-2.66,0.00
5.904,-1.18,-1.21,0.59,3.28,-11.27,-1.56,-1.91,0.12,-2.66,0.00
5.904,-1.18,-1.21,0.59,3.28,-11.27,-1.56,-2.19,0.97,-4.15,0.00
5.905,-1.18,-1.21,0.59,-1.86,-10.95,4.07,-2.19,0.97,-4.15,0.00
5.943,-1.18,-1.21,0.59,-4.37,-10.29,3.02,-2.19,0.97,-4.15,0.00
5.983,-1.18,-1.21,0.59,-4.37,-10.29,3.02,-0.87,1.97,-4.92,0.00
5.984,-1.67,-1.36,0.50,-4.37,-10.29,3.02,-0.87,1.97,-4.92,0.00
5.984,-1.67,-1.36,0.50,-7.88,-9.27,3.82,-0.87,1.97,-4.92,0.00
6.022,-1.83,-1.13,0.39,-7.88,-9.27,3.82,-0.87,1.97,-4.92,0.00
6.023,-1.83,-1.13,0.39,-10.68,-6.95,3.86,-0.87,1.97,-4.92,0.00
6.062,-1.83,-1.13,0.39,-10.68,-6.95,3.86,-0.22,1.53,-4.71,0.00
6.062,-1.83,-1.13,0.39,-11.12,-3.64,3.24,-0.22,1.53,-4.71,0.00
6.101,-1.61,-0.84,0.25,-11.12,-3.64,3.24,-0.22,1.53,-4.71,0.00
6.102,-1.61,-0.84,0.25,-11.12,-3.64,3.24,-0.43,-0.20,-3.39,0.00
6.102,-1.61,-0.84,0.25,-10.78,-1.06,1.94,-0.43,-0.20,-3.39,0.00
6.14,-1.61,-0.84,0.25,-9.40,0.85,1.94,-0.43,-0.20,-3.39,0.00
6.181,-1.61,-0.84,0.25,-9.40,0.85,1.94,-1.08,-1.65,-2.24,0.00
6.181,-1.33,-0.61,0.31,-9.40,0.85,1.94,-1.08,-1.65,-2.24,0.00
6.182,-1.33,-0.61,0.31,-8.51,2.49,2.68,-1.08,-1.65,-2.24,0.00
6.22,-1.11,-0.44,0.30,-8.51,2.49,2.68,-1.08,-1.65,-2.24,0.00
6.22,-1.11,-0.44,0.30,-7.10,4.04,1.79,-1.08,-1.65,-2.24,0.00
6.26,-1.11,-0.44,0.30,-7.10,4.04,1.79,-1.24,-1.89,-1.41,0.00
6.26,-1.11,-0.44,0.30,-6.75,4.84,2.72,-1.24,-1.89,-1.41,0.00
6.299,-1.11,-0.44,0.30,-6.75,4.84,2.72,-0.80,-1.04,-1.11,0.00
6.3,-1.26,-0.33,0.37,-6.75,4.84,2.72,-0.80,-1.04,-1.11,0.00
6.3,-1.26,-0.33,0.37,-7.80,5.42,3.39,-0.80,-1.04,-1.11,0.00
6.339,-1.26,-0.33,0.37,-9.41,6.27,3.26,-0.80,-1.04,-1.11,0.00
6.379,-1.26,-0.33,0.37,-9.41,6.27,3.26,0.09,-0.08,-0.55,0.00
6.379,-1.58,-0.29,0.37,-9.41,6.27,3.26,0.09,-0.08,-0.55,0.00
6.38,-1.58,-0.29,0.37,-11.55,6.54,3.15,0.09,-0.08,-0.55,0.00
6.418,-1.58,-0.29,0.37,-12.00,4.94,2.94,0.09,-0.08,-0.55,0.00
6.419,-1.66,-0.47,0.49,-12.00,4.94,2.94,0.09,-0.08,-0.55,0.00
6.457,-1.66,-0.47,0.49,-11.47,3.87,3.84,0.09,-0.08,-0.55,0.00
6.458,-1.66,-0.47,0.49,-11.47,3.87,3.84,0.84,0.56,0.72,0.00
6.497,-1.66,-0.47,0.49,-11.47,3.87,3.84,1.57,0.96,2.11,0.00
6.497,-1.66,-0.47,0.49,-9.69,2.04,0.52,1.57,0.96,2.11,0.00
6.498,-1.49,-0.79,0.25,-9.69,2.04,0.52,1.57,0.96,2.11,0.00
6.536,-1.49,-0.79,0.25,-7.16,-1.73,1.13,1.57,0.96,2.11,0.00
6.576,-1.49,-0.79,0.25,-7.16,-1.73,1.13,1.35,1.26,3.10,0.00
6.577,-1.28,-1.20,0.50,-7.16,-1.73,1.13,1.35,1.26,3.10,0.00
6.577,-1.28,-1.20,0.50,-4.37,-5.15,2.95,1.35,1.26,3.10,0.00
6.615,-1.45,-1.31,0.35,-4.37,-5.15,2.95,1.35,1.26,3.10,0.00
6.616,-1.45,-1.31,0.35,-4.66,-7.54,4.39,1.35,1.26,3.10,0.00
6.655,-1.45,-1.31,0.35,-4.66,-7.54,4.39,1.59,1.92,3.20,0.00
6.656,-1.45,-1.31,0.35,-4.66,-8.71,2.30,1.59,1.92,3.20,0.00
6.695,-1.45,-1.31,0.35,-4.66,-8.71,2.30,0.57,0.63,3.67,0.00
6.695,-1.31,-1.32,0.44,-4.66,-8.71,2.30,0.57,0.63,3.67,0.00
6.696,-1.31,-1.32,0.44,-4.06,-10.03,1.77,0.57,0.63,3.67,0.00
6.734,-1.31,-1.32,0.44,-1.63,-11.60,3.94,0.57,0.63,3.67,0.00
6.774,-0.87,-1.12,0.41,-1.63,-11.60,3.94,0.57,0.63,3.67,0.00
6.775,-0.87,-1.12,0.41,1.22,-11.89,3.17,0.57,0.63,3.67,0.00
6.775,-0.87,-1.12,0.41,1.22,-11.89,3.17,0.41,-0.44,3.91,0.00
6.814,-0.87,-1.12,0.41,3.26,-10.59,1.00,0.41,-0.44,3.91,0.00
6.853,-0.77,-0.74,0.27,3.26,-10.59,1.00,0.41,-0.44,3.91,0.00
6.854,-0.77,-0.74,0.27,3.26,-10.59,1.00,0.40,-1.19,3.42,0.00
6.855,-0.77,-0.74,0.27,2.28,-9.76,0.17,0.40,-1.19,3.42,0.00
6.893,-0.45,-0.53,0.19,2.28,-9.76,0.17,0.40,-1.19,3.42,0.00
6.893,-0.45,-0.53,0.19,2.28,-9.76,0.17,0.28,-2.11,3.00,0.00
6.894,-0.45,-0.53,0.19,2.93,-9.71,-1.53,0.28,-2.11,3.00,0.00
6.931,-0.45,-0.53,0.19,4.81,-9.06,-1.88,0.28,-2.11,3.00,0.00
6.972,-0.45,-0.53,0.19,4.81,-9.06,-1.88,0.33,-1.10,1.96,0.00
6.972,-0.14,-0.31,0.26,4.81,-9.06,-1.88,0.33,-1.10,1.96,0.00
6.973,-0.14,-0.31,0.26,6.10,-8.15,-1.54,0.33,-1.10,1.96,0.00
7.011,-0.14,-0.31,0.26,6.95,-7.33,-1.21,0.33,-1.10,1.96,0.00
7.05,-0.14,-0.31,0.26,6.95,-7.33,-1.21,0.76,0.06,0.58,0.00
7.051,-0.14,-0.31,0.26,6.38,-7.83,-2.58,0.76,0.06,0.58,0.00
7.051,-0.12,-0.29,0.08,6.38,-7.83,-2.58,0.76,0.06,0.58,0.00
7.09,-0.07,-0.21,-0.12,6.38,-7.83,-2.58,0.76,0.06,0.58,0.00
7.09,-0.07,-0.21,-0.12,7.20,-7.11,-4.20,0.76,0.06,0.58,0.00
7.129,-0.07,-0.21,-0.12,7.20,-7.11,-4.20,0.61,0.81,-0.77,0.00
7.13,-0.07,-0.21,-0.12,7.27,-6.04,-3.91,0.61,0.81,-0.77,0.00
7.169,-0.07,-0.21,-0.12,7.27,-6.04,-3.91,-0.24,0.54,-2.00,0.00
7.17,-0.48,-0.30,-0.11,7.27,-6.04,-3.91,-0.24,0.54,-2.00,0.00
7.17,-0.48,-0.30,-0.11,4.46,-5.48,-3.65,-0.24,0.54,-2.00,0.00
7.209,-0.48,-0.30,-0.11,2.67,-5.96,-3.57,-0.24,0.54,-2.00,0.00
7.249,-0.48,-0.30,-0.11,2.67,-5.96,-3.57,-0.95,0.25,-2.75,0.00
7.25,-0.81,-0.60,0.23,2.67,-5.96,-3.57,-0.95,0.25,-2.75,0.00
7.25,-0.81,-0.60,0.23,1.40,-6.67,-0.45,-0.95,0.25,-2.75,0.00
7.289,-0.81,-0.60,0.23,-2.23,-6.58,1.48,-0.95,0.25,-2.75,0.00
7.29,-1.31,-0.70,0.41,-2.23,-6.58,1.48,-0.95,0.25,-2.75,0.00
7.329,-1.31,-0.70,0.41,-2.23,-6.58,1.48,-0.52,1.23,-3.70,0.00
7.33,-1.31,-0.70,0.41,-4.25,-4.86,2.55,-0.52,1.23,-3.70,0.00
7.366,-1.31,-0.70,0.41,-4.25,-4.86,2.55,0.49,1.37,-3.88,0.00
7.367,-1.44,-0.64,0.01,-4.25,-4.86,2.55,0.49,1.37,-3.88,0.00
7.368,-1.44,-0.64,0.01,-5.49,-2.94,-0.50,0.49,1.37,-3.88,0.00
7.406,-1.44,-0.64,0.01,-5.88,-1.75,-1.25,0.49,1.37,-3.88,0.00
7.446,-1.44,-0.64,0.01,-5.88,-1.75,-1.25,-0.04,1.03,-3.51,0.00
7.447,-1.44,-0.64,0.01,-7.98,-0.49,0.60,-0.04,1.03,-3.51,0.00
7.447,-1.62,-0.60,0.12,-7.98,-0.49,0.60,-0.04,1.03,-3.51,0.00
7.485,-1.52,-0.56,0.01,-7.98,-0.49,0.60,-0.04,1.03,-3.51,0.00
7.486,-1.52,-0.56,0.01,-9.29,0.97,1.13,-0.04,1.03,-3.51,0.00
7.525,-1.52,-0.56,0.01,-9.29,0.97,1.13,-0.16,0.08,-2.35,0.00
7.526,-1.52,-0.56,0.01,-7.70,1.30,-0.57,-0.16,0.08,-2.35,0.00
7.565,-1.52,-0.56,0.01,-7.70,1.30,-0.57,-0.17,-0.33,-1.48,0.00
7.566,-1.23,-0.49,0.27,-7.70,1.30,-0.57,-0.17,-0.33,-1.48,0.00
7.566,-1.23,-0.49,0.27,-6.05,1.90,1.19,-0.17,-0.33,-1.48,0.00
7.604,-1.23,-0.49,0.27,-5.11,2.91,2.66,-0.17,-0.33,-1.48,0.00
7.644,-1.23,-0.49,0.27,-5.43,3.24,1.57,-0.17,-0.33,-1.48,0.00
7.645,-1.16,-0.45,0.24,-5.43,3.24,1.57,-0.17,-0.33,-1.48,0.00
7.646,-1.16,-0.45,0.24,-5.43,3.24,1.57,0.64,0.66,-1.09,0.00
7.683,-1.04,-0.50,0.37,-5.43,3.24,1.57,0.64,0.66,-1.09,0.00
7.684,-1.04,-0.50,0.37,-4.29,2.93,1.83,0.64,0.66,-1.09,0.00
7.722,-1.04,-0.50,0.37,-4.01,2.72,2.72,0.64,0.66,-1.09,0.00
7.723,-1.04,-0.50,0.37,-4.01,2.72,2.72,1.48,1.42,-0.69,0.00
7.762,-1.04,-0.50,0.37,-4.01,2.72,2.72,2.49,2.65,-0.27,0.00
7.763,-0.90,-0.68,0.18,-4.01,2.72,2.72,2.49,2.65,-0.27,0.00
7.764,-0.90,-0.68,0.18,-3.11,1.51,1.08,2.49,2.65,-0.27,0.00
7.802,-0.90,-0.68,0.18,-2.10,0.45,0.42,2.49,2.65,-0.27,0.00
7.842,-0.90,-0.68,0.18,-2.10,0.45,0.42,2.18,2.62,0.25,0.00
7.842,-0.68,-0.81,0.23,-2.10,0.45,0.42,2.18,2.62,0.25,0.00
7.843,-0.68,-0.81,0.23,-0.51,-0.55,0.27,2.18,2.62,0.25,0.00
7.881,-0.68,-0.81,0.23,1.13,-1.02,3.09,2.18,2.62,0.25,0.00
7.921,-0.68,-0.81,0.23,1.13,-1.02,3.09,2.00,2.61,0.29,0.00
7.922,-0.48,-0.81,0.41,1.13,-1.02,3.09,2.00,2.61,0.29,0.00
7.922,-0.48,-0.81,0.41,2.28,-0.90,3.17,2.00,2.61,0.29,0.00
7.961,-0.48,-0.81,0.41,2.28,-0.90,3.17,2.00,2.96,0.03,0.00
7.962,-0.39,-0.81,0.40,2.28,-0.90,3.17,2.00,2.96,0.03,0.00
7.962,-0.39,-0.81,0.40,3.11,-1.04,2.29,2.00,2.96,0.03,0.00
8.002,-0.39,-0.81,0.40,3.15,-0.92,3.94,2.00,2.96,0.03,0.00
8.039,-0.39,-0.81,0.40,3.15,-0.92,3.94,1.81,2.71,-0.27,0.00
8.04,-0.45,-0.92,0.47,3.15,-0.92,3.94,1.81,2.71,-0.27,0.00
8.04,-0.45,-0.92,0.47,2.36,-1.83,4.25,1.81,2.71,-0.27,0.00
8.079,-0.45,-0.92,0.47,2.43,-1.91,4.57,1.81,2.71,-0.27,0.00
8.118,-0.45,-0.92,0.47,0.64,-1.30,3.29,1.81,2.71,-0.27,0.00
8.119,-0.60,-0.88,0.36,0.64,-1.30,3.29,1.81,2.71,-0.27,0.00
8.12,-0.60,-0.88,0.36,0.64,-1.30,3.29,2.13,2.58,-0.64,0.00
8.158,-0.67,-0.73,0.32,0.64,-1.30,3.29,2.13,2.58,-0.64,0.00
8.159,-0.67,-0.73,0.32,-0.40,-0.04,3.02,2.13,2.58,-0.64,0.00
8.197,-0.67,-0.73,0.32,-0.40,-0.04,3.02,2.15,2.86,-0.55,0.00
8.197,-0.67,-0.73,0.32,-0.28,0.63,2.86,2.15,2.86,-0.55,0.00
8.237,-0.67,-0.73,0.32,-0.28,0.63,2.86,1.97,2.59,-0.39,0.00
8.238,-0.66,-0.72,0.37,-0.28,0.63,2.86,1.97,2.59,-0.39,0.00
8.238,-0.66,-0.72,0.37,-0.21,0.59,3.55,1.97,2.59,-0.39,0.00
8.276,-0.66,-0.72,0.37,-0.58,0.91,3.18,1.97,2.59,-0.39,0.00
8.316,-0.66,-0.72,0.37,-1.96,2.38,4.09,1.97,2.59,-0.39,0.00
8.317,-0.86,-0.55,0.43,-1.96,2.38,4.09,1.97,2.59,-0.39,0.00
8.317,-0.86,-0.55,0.43,-1.96,2.38,4.09,2.12,2.85,-0.67,0.00
8.356,-1.39,-0.36,0.30,-1.96,2.38,4.09,2.12,2.85,-0.67,0.00
8.356,-1.39,-0.36,0.30,-6.99,3.75,2.46,2.12,2.85,-0.67,0.00
8.395,-1.39,-0.36,0.30,-6.99,3.75,2.46,2.00,2.37,-0.17,0.00
8.396,-1.39,-0.36,0.30,-7.44,4.20,2.30,2.00,2.37,-0.17,0.00
8.435,-1.39,-0.36,0.30,-7.44,4.20,2.30,1.20,0.45,1.37,0.00
8.436,-1.39,-0.36,0.30,-8.12,2.78,3.56,1.20,0.45,1.37,0.00
8.437,-1.58,-0.51,0.57,-8.12,2.78,3.56,1.20,0.45,1.37,0.00
8.474,-1.58,-0.51,0.57,-8.29,0.70,5.05,1.20,0.45,1.37,0.00
8.513,-1.58,-0.51,0.57,-7.36,-1.67,4.49,1.20,0.45,1.37,0.00
8.514,-1.58,-0.51,0.57,-7.36,-1.67,4.49,1.45,-0.60,2.63,0.00
8.515,-1.63,-0.74,0.67,-7.36,-1.67,4.49,1.45,-0.60,2.63,0.00
8.553,-1.53,-0.96,0.67,-7.36,-1.67,4.49,1.45,-0.60,2.63,0.00
8.554,-1.53,-0.96,0.67,-7.66,-4.34,2.60,1.45,-0.60,2.63,0.00
8.593,-1.53,-0.96,0.67,-7.66,-4.34,2.60,1.68,-1.51,3.66,0.00
8.594,-1.53,-0.96,0.67,-5.42,-7.13,2.62,1.68,-1.51,3.66,0.00
8.633,-1.53,-0.96,0.67,-4.43,-9.25,3.00,1.68,-1.51,3.66,0.00
8.634,-1.27,-1.02,0.75,-4.43,-9.25,3.00,1.68,-1.51,3.66,0.00
8.634,-1.27,-1.02,0.75,-4.43,-9.25,3.00,1.79,-2.17,4.13,0.00
8.672,-1.27,-1.02,0.75,-2.60,-11.00,1.01,1.79,-2.17,4.13,0.00
8.711,-1.01,-0.84,0.69,-2.60,-11.00,1.01,1.79,-2.17,4.13,0.00
8.712,-1.01,-0.84,0.69,-2.60,-11.00,1.01,1.72,-1.84,3.89,0.00
8.712,-1.01,-0.84,0.69,-1.94,-11.20,0.25,1.72,-1.84,3.89,0.00
8.751,-0.63,-0.43,0.43,-1.94,-11.20,0.25,1.72,-1.84,3.89,0.00
8.752,-0.63,-0.43,0.43,-1.63,-10.14,1.05,1.72,-1.84,3.89,0.00
8.791,-0.63,-0.43,0.43,0.58,-8.73,-2.79,1.72,-1.84,3.89,0.00
8.792,-0.63,-0.43,0.43,0.58,-8.73,-2.79,1.70,-1.83,3.05,0.00
8.83,-0.35,-0.20,0.37,0.58,-8.73,-2.79,1.70,-1.83,3.05,0.00
8.831,-0.35,-0.20,0.37,1.73,-8.00,-2.74,1.70,-1.83,3.05,0.00
8.832,-0.35,-0.20,0.37,1.73,-8.00,-2.74,1.64,-1.22,2.16,0.00
8.869,-0.35,-0.20,0.37,2.15,-7.69,-2.85,1.64,-1.22,2.16,0.00
8.909,-0.35,-0.20,0.37,2.15,-7.69,-2.85,1.69,-0.60,1.19,0.00
8.91,-0.20,0.01,0.10,2.15,-7.69,-2.85,1.69,-0.60,1.19,0.00
8.91,-0.20,0.01,0.10,2.57,-6.96,-4.46,1.69,-0.60,1.19,0.00
8.949,-0.32,0.15,0.08,2.57,-6.96,-4.46,1.69,-0.60,1.19,0.00
8.95,-0.32,0.15,0.08,3.18,-5.68,-5.74,1.69,-0.60,1.19,0.00
8.989,-0.32,0.15,0.08,3.18,-5.68,-5.74,1.18,-0.48,0.31,0.00
8.99,-0.32,0.15,0.08,1.12,-5.49,-4.58,1.18,-0.48,0.31,0.00
9.028,-0.32,0.15,0.08,1.12,-5.49,-4.58,0.67,-0.51,0.02,0.00
9.029,-0.20,0.22,0.07,1.12,-5.49,-4.58,0.67,-0.51,0.02,0.00
9.029,-0.20,0.22,0.07,1.45,-4.92,-4.48,0.67,-0.51,0.02,0.00
9.067,-0.20,0.22,0.07,2.69,-4.80,-4.44,0.67,-0.51,0.02,0.00
9.107,-0.31,0.21,0.06,2.69,-4.80,-4.44,0.67,-0.51,0.02,0.00
9.108,-0.31,0.21,0.06,2.69,-4.80,-4.44,0.17,-0.12,-0.49,0.00
9.108,-0.31,0.21,0.06,1.20,-4.54,-4.06,0.17,-0.12,-0.49,0.00
9.147,-0.31,0.21,0.06,1.67,-4.92,-5.09,0.17,-0.12,-0.49,0.00
9.186,-0.31,0.21,0.06,1.67,-4.92,-5.09,-0.64,-0.09,-0.97,0.00
9.187,-0.27,0.04,0.10,1.67,-4.92,-5.09,-0.64,-0.09,-0.97,0.00
9.188,-0.27,0.04,0.10,2.03,-5.48,-4.32,-0.64,-0.09,-0.97,0.00
9.225,-0.27,0.04,0.10,2.03,-5.48,-4.32,-1.12,1.20,-1.92,0.00
9.226,-0.27,0.04,0.10,4.44,-6.66,-1.81,-1.12,1.20,-1.92,0.00
9.226,-0.32,-0.43,0.33,4.44,-6.66,-1.81,-1.12,1.20,-1.92,0.00
9.265,-0.32,-0.43,0.33,2.39,-9.39,-1.58,-1.12,1.20,-1.92,0.00
9.305,-0.32,-0.43,0.33,2.39,-9.39,-1.58,-1.25,2.04,-3.59,0.00
9.306,-0.95,-0.73,0.38,2.39,-9.39,-1.58,-1.25,2.04,-3.59,0.00
9.306,-0.95,-0.73,0.38,-1.14,-9.43,-2.50,-1.25,2.04,-3.59,0.00
9.344,-0.95,-0.73,0.38,-2.67,-8.63,2.25,-1.25,2.04,-3.59,0.00
9.384,-0.95,-0.73,0.38,-2.67,-8.63,2.25,-1.59,1.58,-4.50,0.00
9.385,-1.27,-1.12,0.09,-2.67,-8.63,2.25,-1.59,1.58,-4.50,0.00
9.385,-1.27,-1.12,0.09,-3.91,-9.66,-3.34,-1.59,1.58,-4.50,0.00
9.423,-1.27,-1.12,0.09,-7.36,-10.82,3.95,-1.59,1.58,-4.50,0.00
9.424,-1.72,-1.41,0.97,-7.36,-10.82,3.95,-1.59,1.58,-4.50,0.00
9.462,-1.72,-1.41,0.97,-7.36,-10.82,3.95,-2.97,1.42,-5.00,0.00
9.463,-1.72,-1.41,0.97,-9.60,-8.69,8.05,-2.97,1.42,-5.00,0.00
9.502,-1.72,-1.41,0.97,-9.60,-8.69,8.05,-1.10,1.69,-4.98,0.00
9.503,-1.77,-1.10,0.65,-9.60,-8.69,8.05,-1.10,1.69,-4.98,0.00
9.503,-1.77,-1.10,0.65,-11.16,-5.14,6.20,-1.10,1.69,-4.98,0.00
9.541,-1.77,-1.10,0.65,-10.83,-1.80,3.44,-1.10,1.69,-4.98,0.00
9.581,-1.77,-1.10,0.65,-10.83,-1.80,3.44,-0.73,0.54,-3.95,0.00
9.582,-1.88,-0.63,0.64,-10.83,-1.80,3.44,-0.73,0.54,-3.95,0.00
9.582,-1.88,-0.63,0.64,-13.82,1.92,5.18,-0.73,0.54,-3.95,0.00
9.621,-1.88,-0.63,0.64,-11.77,4.80,4.70,-0.73,0.54,-3.95,0.00
9.622,-1.60,-0.24,0.32,-11.77,4.80,4.70,-0.73,0.54,-3.95,0.00
9.66,-1.60,-0.24,0.32,-11.77,4.80,4.70,0.05,-0.50,-2.18,0.00
9.66,-1.60,-0.24,0.32,-11.56,6.86,0.98,0.05,-0.50,-2.18,0.00
9.701,-1.49,-0.03,0.15,-11.56,6.86,0.98,0.05,-0.50,-2.18,0.00
9.701,-1.49,-0.03,0.15,-11.56,6.86,0.98,0.37,-0.72,-0.92,0.00
9.701,-1.49,-0.03,0.15,-10.46,8.37,-1.19,0.37,-0.72,-0.92,0.00
9.74,-1.49,-0.03,0.15,-10.92,8.73,0.28,0.37,-0.72,-0.92,0.00
9.779,-1.49,-0.03,0.15,-13.34,8.01,0.50,0.37,-0.72,-0.92,0.00
9.779,-1.83,-0.09,0.25,-13.34,8.01,0.50,0.37,-0.72,-0.92,0.00
9.78,-1.83,-0.09,0.25,-13.34,8.01,0.50,0.46,0.29,0.02,0.00
9.818,-2.08,-0.53,0.42,-13.34,8.01,0.50,0.46,0.29,0.02,0.00
9.819,-2.08,-0.53,0.42,-13.56,5.89,0.27,0.46,0.29,0.02,0.00
9.858,-2.08,-0.53,0.42,-13.56,5.89,0.27,0.47,1.25,1.56,0.00
9.859,-2.08,-0.53,0.42,-14.31,1.96,2.41,0.47,1.25,1.56,0.00
9.898,-2.08,-0.53,0.42,-14.31,1.96,2.41,0.23,0.06,3.48,0.00
9.898,-2.08,-0.53,0.42,-14.72,-2.82,-0.51,0.23,0.06,3.48,0.00
9.899,-2.13,-1.18,0.29,-14.72,-2.82,-0.51,0.23,0.06,3.48,0.00
9.938,-2.13,-1.18,0.29,-11.17,-7.70,1.81,0.23,0.06,3.48,0.00
9.977,-2.13,-1.18,0.29,-11.17,-7.70,1.81,0.06,0.10,4.48,0.00
9.978,-2.13,-1.18,0.29,-9.84,-12.29,4.17,0.06,0.10,4.48,0.00
9.978,-1.93,-1.60,0.62,-9.84,-12.29,4.17,0.06,0.10,4.48,0.00
10.016,-1.76,-1.37,0.42,-9.84,-12.29,4.17,0.06,0.10,4.48,0.00
10.017,-1.76,-1.37,0.42,-6.98,-12.07,3.86,0.06,0.10,4.48,0.00
10.056,-1.76,-1.37,0.42,-6.98,-12.07,3.86,0.73,0.47,4.62,0.00
10.057,-1.76,-1.37,0.42,-6.49,-13.11,2.17,0.73,0.47,4.62,0.00
10.096,-1.76,-1.37,0.42,-6.49,-13.11,2.17,0.67,0.47,5.18,0.00
10.096,-1.14,-1.46,0.20,-6.49,-13.11,2.17,0.67,0.47,5.18,0.00
10.097,-1.14,-1.46,0.20,-3.67,-17.06,0.45,0.67,0.47,5.18,0.00
10.135,-1.14,-1.46,0.20,0.70,-17.09,0.22,0.67,0.47,5.18,0.00
10.175,-1.14,-1.46,0.20,0.70,-17.09,0.22,-0.03,-0.29,4.34,0.00
10.176,-0.62,-1.05,0.26,0.70,-17.09,0.22,-0.03,-0.29,4.34,0.00
10.176,-0.62,-1.05,0.26,2.10,-15.78,0.61,-0.03,-0.29,4.34,0.00
10.214,-0.62,-1.05,0.26,4.95,-14.18,0.55,-0.03,-0.29,4.34,0.00
10.254,-0.62,-1.05,0.26,4.95,-14.18,0.55,0.67,-0.47,3.06,0.00
10.256,-0.62,-1.05,0.26,10.74,-12.64,-2.91,0.67,-0.47,3.06,0.00
10.256,0.29,-0.65,-0.13,10.74,-12.64,-2.91,0.67,-0.47,3.06,0.00
10.293,0.29,-0.65,-0.13,10.74,-12.64,-2.91,0.63,0.67,1.05,0.00
10.294,0.29,-0.65,-0.13,11.20,-9.53,-4.33,0.63,0.67,1.05,0.00
10.295,0.31,-0.22,-0.25,11.20,-9.53,-4.33,0.63,0.67,1.05,0.00
10.333,0.31,-0.22,-0.25,10.05,-8.12,-3.27,0.63,0.67,1.05,0.00
10.372,0.31,-0.22,-0.25,10.05,-8.12,-3.27,0.19,0.30,-0.21,0.00
10.373,0.05,-0.12,-0.12,10.05,-8.12,-3.27,0.19,0.30,-0.21,0.00
10.374,0.05,-0.12,-0.12,8.53,-7.20,-2.04,0.19,0.30,-0.21,0.00
10.411,0.05,-0.12,-0.12,6.67,-7.15,-1.86,0.19,0.30,-0.21,0.00
10.452,0.05,-0.12,-0.12,7.09,-6.73,-2.68,0.19,0.30,-0.21,0.00
10.453,0.05,-0.12,-0.12,7.09,-6.73,-2.68,0.12,0.16,-0.86,0.00
10.453,-0.04,-0.15,-0.20,7.09,-6.73,-2.68,0.12,0.16,-0.86,0.00
10.491,-0.30,-0.31,-0.02,7.09,-6.73,-2.68,0.12,0.16,-0.86,0.00
10.492,-0.30,-0.31,-0.02,6.85,-6.61,-2.16,0.12,0.16,-0.86,0.00
10.53,-0.30,-0.31,-0.02,6.85,-6.61,-2.16,-0.50,-0.17,-1.79,0.00
10.531,-0.30,-0.31,-0.02,4.51,-7.07,-0.74,-0.50,-0.17,-1.79,0.00
10.57,-0.30,-0.31,-0.02,4.51,-7.07,-0.74,-0.55,0.28,-3.05,0.00
10.571,-0.94,-0.68,0.16,4.51,-7.07,-0.74,-0.55,0.28,-3.05,0.00
10.571,-0.94,-0.68,0.16,1.07,-7.58,1.13,-0.55,0.28,-3.05,0.00
10.609,-0.94,-0.68,0.16,-2.74,-9.72,0.15,-0.55,0.28,-3.05,0.00
10.649,-0.94,-0.68,0.16,-2.74,-9.72,0.15,-0.60,0.05,-3.72,0.00
10.65,-1.20,-1.17,0.11,-2.74,-9.72,0.15,-0.60,0.05,-3.72,0.00
10.651,-1.20,-1.17,0.11,-2.67,-10.80,-0.22,-0.60,0.05,-3.72,0.00
10.689,-1.57,-1.49,0.67,-2.67,-10.80,-0.22,-0.60,0.05,-3.72,0.00
10.69,-1.57,-1.49,0.67,-4.20,-9.99,2.84,-0.60,0.05,-3.72,0.00
10.729,-1.57,-1.49,0.67,-4.20,-9.99,2.84,-1.39,-0.16,-4.45,0.00
10.73,-1.57,-1.49,0.67,-7.68,-11.01,6.35,-1.39,-0.16,-4.45,0.00
10.77,-1.57,-1.49,0.67,-7.68,-11.01,6.35,-0.39,0.40,-4.66,0.00
10.771,-1.84,-1.40,0.57,-7.68,-11.01,6.35,-0.39,0.40,-4.66,0.00
10.771,-1.84,-1.40,0.57,-10.82,-9.35,5.98,-0.39,0.40,-4.66,0.00
10.807,-1.84,-1.40,0.57,-10.98,-5.50,3.58,-0.39,0.40,-4.66,0.00
10.847,-1.84,-1.40,0.57,-10.98,-5.50,3.58,-0.31,-0.97,-4.07,0.00
10.848,-1.81,-0.97,0.46,-10.98,-5.50,3.58,-0.31,-0.97,-4.07,0.00
10.849,-1.81,-0.97,0.46,-12.32,-1.93,3.11,-0.31,-0.97,-4.07,0.00
10.886,-1.46,-0.65,0.65,-12.32,-1.93,3.11,-0.31,-0.97,-4.07,0.00
10.887,-1.46,-0.65,0.65,-11.59,0.61,4.06,-0.31,-0.97,-4.07,0.00
10.926,-1.46,-0.65,0.65,-11.59,0.61,4.06,-0.59,-1.80,-2.84,0.00
10.927,-1.46,-0.65,0.65,-9.88,2.78,4.84,-0.59,-1.80,-2.84,0.00
10.965,-1.46,-0.65,0.65,-9.02,4.99,2.33,-0.59,-1.80,-2.84,0.00
10.966,-1.46,-0.65,0.65,-9.02,4.99,2.33,0.30,-1.05,-2.06,0.00
10.966,-1.29,-0.33,0.29,-9.02,4.99,2.33,0.30,-1.05,-2.06,0.00
11.006,-1.29,-0.33,0.29,-9.70,6.70,-0.65,0.30,-1.05,-2.06,0.00
11.045,-1.29,-0.33,0.29,-10.83,7.25,-1.06,0.30,-1.05,-2.06,0.00
11.046,-1.38,-0.19,0.13,-10.83,7.25,-1.06,0.30,-1.05,-2.06,0.00
11.046,-1.38,-0.19,0.13,-10.83,7.25,-1.06,0.16,-0.74,-1.22,0.00
11.084,-1.38,-0.23,0.22,-10.83,7.25,-1.06,0.16,-0.74,-1.22,0.00
11.085,-1.38,-0.23,0.22,-10.00,7.30,-0.82,0.16,-0.74,-1.22,0.00
11.123,-1.38,-0.23,0.22,-10.00,7.30,-0.82,-0.28,-0.74,-0.11,0.00
11.123,-1.38,-0.23,0.22,-10.43,6.67,0.09,-0.28,-0.74,-0.11,0.00
11.163,-1.38,-0.23,0.22,-10.43,6.67,0.09,-0.40,0.72,0.95,0.00
11.163,-1.58,-0.49,0.39,-10.43,6.67,0.09,-0.40,0.72,0.95,0.00
11.164,-1.58,-0.49,0.39,-10.65,5.30,1.16,-0.40,0.72,0.95,0.00
11.202,-1.58,-0.49,0.39,-11.55,2.82,2.53,-0.40,0.72,0.95,0.00
11.242,-1.65,-0.98,0.36,-11.55,2.82,2.53,-0.40,0.72,0.95,0.00
11.243,-1.65,-0.98,0.36,-11.55,2.82,2.53,0.10,0.80,2.26,0.00
11.243,-1.65,-0.98,0.36,-9.24,-1.40,2.05,0.10,0.80,2.26,0.00
11.282,-2.00,-1.07,0.06,-9.24,-1.40,2.05,0.10,0.80,2.26,0.00
11.282,-2.00,-1.07,0.06,-12.04,-2.92,1.51,0.10,0.80,2.26,0.00
11.321,-2.00,-1.07,0.06,-12.04,-2.92,1.51,0.35,1.55,3.07,0.00
11.321,-2.00,-1.07,0.06,-11.46,-4.32,-0.59,0.35,1.55,3.07,0.00
11.361,-2.00,-1.07,0.06,-11.46,-4.32,-0.59,-0.34,0.67,4.50,0.00
11.362,-1.81,-1.68,0.74,-11.46,-4.32,-0.59,-0.34,0.67,4.50,0.00
11.362,-1.81,-1.68,0.74,-8.02,-9.96,3.92,-0.34,0.67,4.50,0.00
11.401,-1.81,-1.68,0.74,-7.73,-14.07,7.63,-0.34,0.67,4.50,0.00
11.44,-1.81,-1.68,0.74,-2.67,-15.41,0.97,-0.34,0.67,4.50,0.00
11.441,-1.29,-1.62,0.17,-2.67,-15.41,0.97,-0.34,0.67,4.50,0.00
11.441,-1.29,-1.62,0.17,-2.67,-15.41,0.97,0.71,1.01,4.82,0.00
11.479,-1.29,-1.62,0.17,-0.64,-14.41,1.65,0.71,1.01,4.82,0.00
11.519,-1.29,-1.62,0.17,-0.64,-14.41,1.65,-0.20,-0.51,4.18,0.00
11.52,-1.11,-1.17,0.71,-0.64,-14.41,1.65,-0.20,-0.51,4.18,0.00
11.52,-1.11,-1.17,0.71,-0.33,-13.20,6.19,-0.20,-0.51,4.18,0.00
11.558,-0.72,-0.74,-0.06,-0.33,-13.20,6.19,-0.20,-0.51,4.18,0.00
11.559,-0.72,-0.74,-0.06,-0.33,-13.20,6.19,1.08,-0.97,3.90,0.00
11.559,-0.72,-0.74,-0.06,-0.20,-12.17,1.12,1.08,-0.97,3.90,0.00
11.598,-0.72,-0.74,-0.06,3.71,-10.88,-3.28,1.08,-0.97,3.90,0.00
11.637,-0.72,-0.74,-0.06,3.71,-10.88,-3.28,0.80,-0.84,2.99,0.00
11.638,-0.44,-0.32,0.05,3.71,-10.88,-3.28,0.80,-0.84,2.99,0.00
11.638,-0.44,-0.32,0.05,4.11,-8.93,-1.00,0.80,-0.84,2.99,0.00
11.677,-0.44,-0.32,0.05,4.52,-8.17,-1.32,0.80,-0.84,2.99,0.00
11.716,-0.44,-0.32,0.05,4.52,-8.17,-1.32,1.40,-0.18,2.21,0.00
11.717,-0.16,-0.13,-0.23,4.52,-8.17,-1.32,1.40,-0.18,2.21,0.00
11.717,-0.16,-0.13,-0.23,5.94,-7.79,-3.07,1.40,-0.18,2.21,0.00
11.756,0.08,-0.04,-0.39,5.94,-7.79,-3.07,1.40,-0.18,2.21,0.00
11.757,0.08,-0.04,-0.39,7.28,-7.55,-4.68,1.40,-0.18,2.21,0.00
11.796,0.08,-0.04,-0.39,7.28,-7.55,-4.68,1.02,0.10,1.32,0.00
11.797,0.08,-0.04,-0.39,7.84,-7.15,-4.28,1.02,0.10,1.32,0.00
11.835,0.08,-0.04,-0.39,7.84,-7.15,-4.28,-0.06,-0.03,0.10,0.00
11.836,0.00,-0.03,-0.11,7.84,-7.15,-4.28,-0.06,-0.03,0.10,0.00
11.836,0.00,-0.03,-0.11,7.12,-6.51,-1.82,-0.06,-0.03,0.10,0.00
11.875,0.00,-0.03,-0.11,6.57,-7.31,-1.32,-0.06,-0.03,0.10,0.00
11.914,0.00,-0.03,-0.11,6.57,-7.31,-1.32,-0.16,-0.04,-0.92,0.00
11.914,-0.08,-0.22,-0.10,6.57,-7.31,-1.32,-0.16,-0.04,-0.92,0.00
11.915,-0.08,-0.22,-0.10,6.45,-8.02,-1.82,-0.16,-0.04,-0.92,0.00
11.954,-0.08,-0.22,-0.10,5.77,-7.19,-0.24,-0.16,-0.04,-0.92,0.00
11.955,-0.56,-0.39,-0.01,5.77,-7.19,-0.24,-0.16,-0.04,-0.92,0.00
11.993,-0.56,-0.39,-0.01,5.77,-7.19,-0.24,-0.24,0.35,-2.26,0.00
11.994,-0.56,-0.39,-0.01,1.78,-8.26,-0.60,-0.24,0.35,-2.26,0.00
12.033,-0.56,-0.39,-0.01,1.78,-8.26,-0.60,-0.35,0.14,-3.07,0.00
12.033,-0.56,-0.39,-0.01,1.39,-9.63,-1.15,-0.35,0.14,-3.07,0.00
12.034,-0.79,-0.78,-0.05,1.39,-9.63,-1.15,-0.35,0.14,-3.07,0.00
12.072,-0.79,-0.78,-0.05,0.36,-9.90,-0.87,-0.35,0.14,-3.07,0.00
12.115,-1.44,-0.91,0.37,0.36,-9.90,-0.87,-0.35,0.14,-3.07,0.00
12.116,-1.44,-0.91,0.37,0.36,-9.90,-0.87,-1.22,-0.30,-4.08,0.00
12.116,-1.44,-0.91,0.37,-5.14,-8.88,2.53,-1.22,-0.30,-4.08,0.00
12.151,-1.44,-0.91,0.37,-5.19,-6.58,4.09,-1.22,-0.30,-4.08,0.00
12.152,-1.84,-0.89,0.19,-5.19,-6.58,4.09,-1.22,-0.30,-4.08,0.00
12.191,-1.84,-0.89,0.19,-9.72,-5.69,1.04,-1.22,-0.30,-4.08,0.00
12.192,-1.84,-0.89,0.19,-9.72,-5.69,1.04,-0.70,0.38,-3.92,0.00
12.231,-1.84,-0.89,0.19,-9.72,-5.69,1.04,-1.35,-0.34,-2.91,0.00
12.232,-1.36,-0.98,0.17,-9.72,-5.69,1.04,-1.35,-0.34,-2.91,0.00
12.232,-1.36,-0.98,0.17,-5.98,-4.43,-2.90,-1.35,-0.34,-2.91,0.00
12.27,-1.36,-0.98,0.17,-4.65,-5.18,4.10,-1.35,-0.34,-2.91,0.00
12.309,-1.36,-0.98,0.17,-4.65,-5.18,4.10,-1.92,-0.62,-2.62,0.00
12.31,-1.36,-0.98,0.17,-6.74,-4.60,7.96,-1.92,-0.62,-2.62,0.00
12.311,-1.47,-1.04,0.71,-6.74,-4.60,7.96,-1.92,-0.62,-2.62,0.00
12.349,-1.58,-0.73,0.10,-6.74,-4.60,7.96,-1.92,-0.62,-2.62,0.00
12.35,-1.58,-0.73,0.10,-7.72,-2.49,3.71,-1.92,-0.62,-2.62,0.00
12.389,-1.58,-0.73,0.10,-7.72,-2.49,3.71,-0.79,0.11,-2.22,0.00
12.389,-1.58,-0.73,0.10,-8.73,0.17,0.94,-0.79,0.11,-2.22,0.00
12.428,-1.58,-0.73,0.10,-7.26,1.49,1.66,-0.79,0.11,-2.22,0.00
12.429,-1.58,-0.73,0.10,-7.26,1.49,1.66,-1.74,-1.86,-0.97,0.00
12.429,-1.29,-0.64,0.21,-7.26,1.49,1.66,-1.74,-1.86,-0.97,0.00
12.468,-1.29,-0.64,0.21,-5.35,0.96,2.22,-1.74,-1.86,-0.97,0.00
12.507,-1.29,-0.64,0.21,-5.35,0.96,2.22,-2.06,-1.94,-0.02,0.00
12.508,-0.95,-0.65,0.14,-5.35,0.96,2.22,-2.06,-1.94,-0.02,0.00
12.508,-0.95,-0.65,0.14,-2.82,0.86,1.77,-2.06,-1.94,-0.02,0.00
12.546,-0.95,-0.65,0.14,-2.06,1.23,1.09,-2.06,-1.94,-0.02,0.00
12.586,-0.95,-0.65,0.14,-2.06,1.23,1.09,-2.62,-1.77,0.34,0.00
12.587,-0.83,-0.59,0.14,-2.06,1.23,1.09,-2.62,-1.77,0.34,0.00
12.588,-0.83,-0.59,0.14,-1.12,1.26,1.91,-2.62,-1.77,0.34,0.00
12.626,-0.83,-0.59,0.14,-1.12,1.26,1.91,-3.11,-2.46,1.02,0.00
12.627,-0.83,-0.59,0.14,0.14,0.84,3.48,-3.11,-2.46,1.02,0.00
12.627,-0.65,-0.64,0.33,0.14,0.84,3.48,-3.11,-2.46,1.02,0.00
12.665,-0.65,-0.64,0.33,1.78,-0.28,3.96,-3.11,-2.46,1.02,0.00
12.705,-0.65,-0.64,0.33,1.78,-0.28,3.96,-2.50,-2.49,1.47,0.00
12.706,-0.63,-0.72,0.35,1.78,-0.28,3.96,-2.50,-2.49,1.47,0.00
12.706,-0.63,-0.72,0.35,2.94,-1.05,4.20,-2.50,-2.49,1.47,0.00
12.744,-0.63,-0.72,0.35,0.82,-2.56,2.40,-2.50,-2.49,1.47,0.00
12.784,-0.51,-0.82,0.06,0.82,-2.56,2.40,-2.50,-2.49,1.47,0.00
12.785,-0.51,-0.82,0.06,3.66,-3.29,-0.11,-2.50,-2.49,1.47,0.00
12.785,-0.51,-0.82,0.06,3.66,-3.29,-0.11,-1.93,-2.50,1.51,0.00
12.825,-0.56,-0.63,0.10,3.66,-3.29,-0.11,-1.93,-2.50,1.51,0.00
12.825,-0.56,-0.63,0.10,3.39,-2.51,-0.74,-1.93,-2.50,1.51,0.00
12.863,-0.56,-0.63,0.10,3.39,-2.51,-0.74,-2.23,-2.45,0.64,0.00
12.863,-0.56,-0.63,0.10,2.97,-1.13,-0.18,-2.23,-2.45,0.64,0.00
12.903,-0.56,-0.63,0.10,2.97,-1.13,-0.18,-2.03,-1.49,0.20,0.00
12.903,-0.55,-0.57,0.11,2.97,-1.13,-0.18,-2.03,-1.49,0.20,0.00
12.904,-0.55,-0.57,0.11,3.52,-0.69,-0.15,-2.03,-1.49,0.20,0.00
12.942,-0.55,-0.57,0.11,2.39,-0.74,-0.58,-2.03,-1.49,0.20,0.00
12.982,-0.55,-0.57,0.11,2.39,-0.74,-0.58,-1.94,-0.78,-0.33,0.00
12.982,-0.55,-0.57,0.11,2.29,-1.05,0.05,-1.94,-0.78,-0.33,0.00
12.983,-0.61,-0.65,0.13,2.29,-1.05,0.05,-1.94,-0.78,-0.33,0.00
13.021,-0.77,-0.70,0.28,2.29,-1.05,0.05,-1.94,-0.78,-0.33,0.00
13.022,-0.77,-0.70,0.28,1.01,-1.23,1.37,-1.94,-0.78,-0.33,0.00
13.061,-0.77,-0.70,0.28,1.01,-1.23,1.37,-2.14,-0.51,-1.01,0.00
13.063,-0.77,-0.70,0.28,-0.06,-0.75,2.18,-2.14,-0.51,-1.01,0.00
13.1,-0.77,-0.70,0.28,-0.06,-0.75,2.18,-2.10,-0.91,-1.45,0.00
13.101,-0.94,-0.70,0.41,-0.06,-0.75,2.18,-2.10,-0.91,-1.45,0.00
13.101,-0.94,-0.70,0.41,-1.47,-0.27,3.31,-2.10,-0.91,-1.45,0.00
13.14,-0.94,-0.70,0.41,-2.80,0.15,3.96,-2.10,-0.91,-1.45,0.00
13.179,-0.94,-0.70,0.41,-2.80,0.15,3.96,-1.65,-0.88,-1.35,0.00
13.18,-1.03,-0.63,0.37,-2.80,0.15,3.96,-1.65,-0.88,-1.35,0.00
13.18,-1.03,-0.63,0.37,-3.59,1.13,3.61,-1.65,-0.88,-1.35,0.00
13.219,-0.89,-0.58,0.26,-3.59,1.13,3.61,-1.65,-0.88,-1.35,0.00
13.219,-0.89,-0.58,0.26,-3.38,1.61,3.10,-1.65,-0.88,-1.35,0.00
13.258,-0.89,-0.58,0.26,-3.38,1.61,3.10,-1.38,-1.47,-0.87,0.00
13.259,-0.89,-0.58,0.26,-2.40,2.03,2.22,-1.38,-1.47,-0.87,0.00
13.299,-0.89,-0.58,0.26,-2.40,2.03,2.22,-1.19,-1.65,-0.72,0.00
13.3,-0.92,-0.47,0.29,-2.40,2.03,2.22,-1.19,-1.65,-0.72,0.00
13.3,-0.92,-0.47,0.29,-2.25,2.60,2.67,-1.19,-1.65,-0.72,0.00
13.337,-0.92,-0.47,0.29,-3.85,3.85,2.37,-1.19,-1.65,-0.72,0.00
13.377,-0.92,-0.47,0.29,-3.85,3.85,2.37,-0.89,-1.31,-0.54,0.00
13.378,-1.12,-0.39,0.27,-3.85,3.85,2.37,-0.89,-1.31,-0.54,0.00
13.378,-1.12,-0.39,0.27,-5.09,4.40,1.85,-0.89,-1.31,-0.54,0.00
13.419,-1.33,-0.47,0.42,-5.09,4.40,1.85,-0.89,-1.31,-0.54,0.00
13.42,-1.33,-0.47,0.42,-5.55,3.28,3.35,-0.89,-1.31,-0.54,0.00
13.456,-1.33,-0.47,0.42,-7.12,3.19,3.38,-0.89,-1.31,-0.54,0.00
13.457,-1.33,-0.47,0.42,-7.12,3.19,3.38,-0.57,-1.15,0.02,0.00
13.496,-1.33,-0.47,0.42,-7.12,3.19,3.38,-0.06,-1.17,1.00,0.00
13.497,-1.26,-0.58,0.44,-7.12,3.19,3.38,-0.06,-1.17,1.00,0.00
13.497,-1.26,-0.58,0.44,-7.32,2.26,2.57,-0.06,-1.17,1.00,0.00
13.535,-1.26,-0.58,0.44,-4.56,1.14,3.21,-0.06,-1.17,1.00,0.00
13.575,-1.26,-0.58,0.44,-4.56,1.14,3.21,0.66,-0.48,1.73,0.00
13.576,-1.26,-0.58,0.44,-5.94,0.03,-0.01,0.66,-0.48,1.73,0.00
13.576,-1.35,-0.67,0.15,-5.94,0.03,-0.01,0.66,-0.48,1.73,0.00
13.614,-1.35,-0.67,0.15,-4.64,-0.95,-1.17,0.66,-0.48,1.73,0.00
13.615,-1.51,-0.82,0.08,-4.64,-0.95,-1.17,0.66,-0.48,1.73,0.00
13.654,-1.51,-0.82,0.08,-4.64,-0.95,-1.17,0.75,-0.65,2.36,0.00
13.655,-1.51,-0.82,0.08,-6.16,-3.22,-1.72,0.75,-0.65,2.36,0.00
13.694,-1.51,-0.82,0.08,-6.16,-3.22,-1.72,0.83,-0.82,2.88,0.00
13.694,-1.09,-0.80,-0.06,-6.16,-3.22,-1.72,0.83,-0.82,2.88,0.00
13.695,-1.09,-0.80,-0.06,-1.96,-4.03,-3.56,0.83,-0.82,2.88,0.00
13.733,-1.09,-0.80,-0.06,-1.14,-4.94,-3.70,0.83,-0.82,2.88,0.00
13.772,-1.09,-0.80,-0.06,-1.14,-4.94,-3.70,0.39,-0.59,2.75,0.00
13.773,-0.75,-0.72,0.04,-1.14,-4.94,-3.70,0.39,-0.59,2.75,0.00
13.774,-0.75,-0.72,0.04,1.20,-5.64,-3.08,0.39,-0.59,2.75,0.00
13.812,-0.75,-0.72,0.04,4.01,-5.40,-2.75,0.39,-0.59,2.75,0.00
13.851,-0.75,-0.72,0.04,4.01,-5.40,-2.75,0.21,-0.04,2.27,0.00
13.852,-0.42,-0.54,0.06,4.01,-5.40,-2.75,0.21,-0.04,2.27,0.00
13.853,-0.42,-0.54,0.06,5.37,-4.95,-2.58,0.21,-0.04,2.27,0.00
13.891,-0.42,-0.54,0.06,5.37,-4.95,-2.58,0.04,0.39,1.38,0.00
13.892,-0.28,-0.49,0.06,5.37,-4.95,-2.58,0.04,0.39,1.38,0.00
13.893,-0.28,-0.49,0.06,6.53,-5.06,-2.40,0.04,0.39,1.38,0.00
13.931,-0.28,-0.49,0.06,6.79,-5.02,-2.23,0.04,0.39,1.38,0.00
13.97,-0.28,-0.49,0.06,6.79,-5.02,-2.23,-0.35,0.33,0.18,0.00
13.971,-0.28,-0.49,0.06,6.47,-5.17,-2.94,-0.35,0.33,0.18,0.00
13.972,-0.32,-0.54,0.01,6.47,-5.17,-2.94,-0.35,0.33,0.18,0.00
14.01,-0.32,-0.54,0.01,5.89,-5.24,-1.96,-0.35,0.33,0.18,0.00
14.049,-0.32,-0.54,0.01,5.89,-5.24,-1.96,-0.94,0.36,-1.01,0.00
14.05,-0.32,-0.54,0.01,3.71,-5.11,-1.14,-0.94,0.36,-1.01,0.00
14.051,-0.60,-0.65,0.11,3.71,-5.11,-1.14,-0.94,0.36,-1.01,0.00
14.089,-0.75,-0.86,0.08,3.71,-5.11,-1.14,-0.94,0.36,-1.01,0.00
14.089,-0.75,-0.86,0.08,0.42,-6.29,-2.03,-0.94,0.36,-1.01,0.00
14.128,-0.75,-0.86,0.08,0.42,-6.29,-2.03,-1.42,0.28,-1.62,0.00
14.129,-0.75,-0.86,0.08,2.01,-5.71,-0.79,-1.42,0.28,-1.62,0.00
14.168,-0.75,-0.86,0.08,2.01,-5.71,-0.79,-1.78,0.56,-2.44,0.00
14.169,-0.75,-0.86,0.08,0.32,-3.46,1.84,-1.78,0.56,-2.44,0.00
14.169,-1.07,-0.77,0.34,0.32,-3.46,1.84,-1.78,0.56,-2.44,0.00
14.208,-1.07,-0.77,0.34,-4.36,-2.86,2.62,-1.78,0.56,-2.44,0.00
14.247,-1.07,-0.77,0.34,-4.36,-2.86,2.62,-1.09,1.02,-2.19,0.00
14.248,-1.32,-0.68,0.33,-4.36,-2.86,2.62,-1.09,1.02,-2.19,0.00
14.248,-1.32,-0.68,0.33,-5.21,-1.23,3.00,-1.09,1.02,-2.19,0.00
14.287,-0.86,-0.65,0.32,-5.21,-1.23,3.00,-1.09,1.02,-2.19,0.00
14.288,-0.86,-0.65,0.32,-3.23,-0.90,2.36,-1.09,1.02,-2.19,0.00
14.326,-0.86,-0.65,0.32,-3.23,-0.90,2.36,-0.77,-0.06,-1.11,0.00
14.327,-0.86,-0.65,0.32,-0.30,-0.19,2.76,-0.77,-0.06,-1.11,0.00
14.367,-0.86,-0.65,0.32,-0.30,-0.19,2.76,-0.36,-0.61,-1.10,0.00
14.368,-0.75,-0.57,0.04,-0.30,-0.19,2.76,-0.36,-0.61,-1.10,0.00
14.368,-0.75,-0.57,0.04,0.32,0.70,1.25,-0.36,-0.61,-1.10,0.00
14.406,-0.75,-0.57,0.04,-0.58,1.44,-1.24,-0.36,-0.61,-1.10,0.00
14.445,-0.75,-0.57,0.04,-0.29,1.99,0.12,-0.36,-0.61,-1.10,0.00
14.446,-0.75,-0.57,0.04,-0.29,1.99,0.12,-1.02,-0.72,-1.13,0.00
14.446,-0.73,-0.51,0.09,-0.29,1.99,0.12,-1.02,-0.72,-1.13,0.00
14.485,-0.90,-0.52,0.23,-0.29,1.99,0.12,-1.02,-0.72,-1.13,0.00
14.486,-0.90,-0.52,0.23,-1.12,2.58,2.08,-1.02,-0.72,-1.13,0.00
14.525,-0.90,-0.52,0.23,-1.12,2.58,2.08,-1.40,-0.94,-1.18,0.00
14.525,-0.90,-0.52,0.23,-2.79,2.52,2.18,-1.40,-0.94,-1.18,0.00
14.564,-1.11,-0.55,0.31,-2.79,2.52,2.18,-1.40,-0.94,-1.18,0.00
14.565,-1.11,-0.55,0.31,-2.79,2.52,2.18,-1.20,-0.69,-1.26,0.00
14.565,-1.11,-0.55,0.31,-3.96,2.15,1.71,-1.20,-0.69,-1.26,0.00
14.604,-1.11,-0.55,0.31,-6.23,2.93,4.20,-1.20,-0.69,-1.26,0.00
14.643,-1.11,-0.55,0.31,-6.23,2.93,4.20,-0.65,-0.09,-0.97,0.00
14.643,-1.11,-0.55,0.31,-9.08,4.04,5.76,-0.65,-0.09,-0.97,0.00
14.644,-1.49,-0.48,0.54,-9.08,4.04,5.76,-0.65,-0.09,-0.97,0.00
14.682,-1.49,-0.52,0.42,-9.08,4.04,5.76,-0.65,-0.09,-0.97,0.00
14.683,-1.49,-0.52,0.42,-9.30,2.20,5.05,-0.65,-0.09,-0.97,0.00
14.722,-1.49,-0.52,0.42,-9.30,2.20,5.05,0.50,0.02,0.15,0.00
14.723,-1.49,-0.52,0.42,-8.69,2.94,3.80,0.50,0.02,0.15,0.00
14.761,-1.49,-0.52,0.42,-8.60,3.00,3.08,0.50,0.02,0.15,0.00
14.762,-1.36,-0.60,0.35,-8.60,3.00,3.08,0.50,0.02,0.15,0.00
14.762,-1.36,-0.60,0.35,-8.60,3.00,3.08,1.25,0.52,1.26,0.00
14.801,-1.36,-0.60,0.35,-5.25,0.42,2.55,1.25,0.52,1.26,0.00
14.841,-1.36,-0.60,0.35,-5.25,0.42,2.55,1.56,1.04,2.19,0.00
14.841,-1.23,-0.87,0.49,-5.25,0.42,2.55,1.56,1.04,2.19,0.00
14.842,-1.23,-0.87,0.49,-2.62,-1.63,3.64,1.56,1.04,2.19,0.00
14.881,-1.23,-0.87,0.49,-6.60,-4.29,4.22,1.56,1.04,2.19,0.00
14.92,-1.23,-0.87,0.49,-6.60,-4.29,4.22,2.10,1.39,2.74,0.00
14.921,-1.42,-1.07,0.28,-6.60,-4.29,4.22,2.10,1.39,2.74,0.00
14.921,-1.42,-1.07,0.28,-4.62,-6.13,1.78,2.10,1.39,2.74,0.00
14.96,-1.42,-1.07,0.28,-4.62,-6.13,1.78,1.43,0.33,3.42,0.00
14.961,-1.17,-1.04,0.17,-4.62,-6.13,1.78,1.43,0.33,3.42,0.00
14.961,-1.17,-1.04,0.17,-2.71,-7.54,-1.38,1.43,0.33,3.42,0.00
14.998,-1.17,-1.04,0.17,-0.79,-8.19,1.03,1.43,0.33,3.42,0.00
15.038,-0.94,-0.91,0.15,-0.79,-8.19,1.03,1.43,0.33,3.42,0.00
15.039,-0.94,-0.91,0.15,-0.79,-8.19,1.03,0.94,-0.50,3.39,0.00
15.039,-0.94,-0.91,0.15,-0.15,-8.86,0.30,0.94,-0.50,3.39,0.00
15.078,-0.94,-0.91,0.15,2.83,-8.94,-1.11,0.94,-0.50,3.39,0.00
15.121,-0.60,-0.72,0.05,2.83,-8.94,-1.11,0.94,-0.50,3.39,0.00
15.121,-0.60,-0.72,0.05,2.83,-8.94,-1.11,0.72,-0.33,3.18,0.00
15.122,-0.60,-0.72,0.05,4.00,-8.83,-1.47,0.72,-0.33,3.18,0.00
15.157,-0.34,-0.66,0.05,4.00,-8.83,-1.47,0.72,-0.33,3.18,0.00
15.157,-0.34,-0.66,0.05,5.14,-9.54,-1.26,0.72,-0.33,3.18,0.00
15.196,-0.34,-0.66,0.05,5.14,-9.54,-1.26,0.27,-0.61,2.48,0.00
15.197,-0.34,-0.66,0.05,6.23,-9.41,-1.94,0.27,-0.61,2.48,0.00
15.236,-0.34,-0.66,0.05,6.51,-9.08,-3.76,0.27,-0.61,2.48,0.00
15.237,-0.34,-0.66,0.05,6.51,-9.08,-3.76,-0.22,-0.71,1.25,0.00
15.237,-0.21,-0.54,-0.07,6.51,-9.08,-3.76,-0.22,-0.71,1.25,0.00
15.275,-0.21,-0.54,-0.07,7.10,-7.94,-2.90,-0.22,-0.71,1.25,0.00
15.315,-0.21,-0.54,-0.07,7.10,-7.94,-2.90,-0.89,-0.78,-0.02,0.00
15.315,-0.15,-0.57,0.03,7.10,-7.94,-2.90,-0.89,-0.78,-0.02,0.00
15.315,-0.15,-0.57,0.03,6.94,-8.30,-2.82,-0.89,-0.78,-0.02,0.00
15.354,-0.15,-0.57,0.03,8.08,-7.91,-3.19,-0.89,-0.78,-0.02,0.00
15.355,-0.21,-0.58,0.10,8.08,-7.91,-3.19,-0.89,-0.78,-0.02,0.00
15.394,-0.21,-0.58,0.10,8.08,-7.91,-3.19,-1.14,-0.20,-1.59,0.00
15.395,-0.21,-0.58,0.10,6.20,-6.43,-2.05,-1.14,-0.20,-1.59,0.00
15.433,-0.21,-0.58,0.10,6.20,-6.43,-2.05,-1.00,0.60,-2.99,0.00
15.434,-0.89,-0.81,-0.00,6.20,-6.43,-2.05,-1.00,0.60,-2.99,0.00
15.434,-0.89,-0.81,-0.00,-0.12,-6.58,-2.30,-1.00,0.60,-2.99,0.00
15.473,-0.89,-0.81,-0.00,0.14,-6.97,-3.27,-1.00,0.60,-2.99,0.00
15.513,-0.89,-0.81,-0.00,0.14,-6.97,-3.27,-1.38,1.14,-3.37,0.00
15.514,-0.89,-0.81,-0.00,-0.49,-7.94,-0.53,-1.38,1.14,-3.37,0.00
15.514,-1.02,-1.16,0.18,-0.49,-7.94,-0.53,-1.38,1.14,-3.37,0.00
15.552,-1.02,-1.16,0.18,-6.30,-6.58,1.95,-1.38,1.14,-3.37,0.00
15.553,-1.46,-1.02,0.23,-6.30,-6.58,1.95,-1.38,1.14,-3.37,0.00
15.592,-1.46,-1.02,0.23,-6.30,-6.58,1.95,-1.30,1.36,-3.85,0.00
15.592,-1.46,-1.02,0.23,-6.84,-3.86,1.36,-1.30,1.36,-3.85,0.00
15.631,-1.46,-1.02,0.23,-6.84,-3.86,1.36,-1.37,0.42,-3.03,0.00
15.632,-1.40,-0.82,0.42,-6.84,-3.86,1.36,-1.37,0.42,-3.03,0.00
15.632,-1.40,-0.82,0.42,-6.63,-1.86,2.56,-1.37,0.42,-3.03,0.00
15.671,-1.40,-0.82,0.42,-7.66,0.04,4.90,-1.37,0.42,-3.03,0.00
15.711,-1.40,-0.82,0.42,-7.66,0.04,4.90,-0.90,-0.45,-2.12,0.00
15.711,-1.33,-0.63,0.33,-7.66,0.04,4.90,-0.90,-0.45,-2.12,0.00
15.712,-1.33,-0.63,0.33,-7.70,1.52,3.73,-0.90,-0.45,-2.12,0.00
15.75,-1.05,-0.56,0.24,-7.70,1.52,3.73,-0.90,-0.45,-2.12,0.00
15.75,-1.05,-0.56,0.24,-6.00,2.51,1.34,-0.90,-0.45,-2.12,0.00
15.789,-1.05,-0.56,0.24,-6.00,2.51,1.34,-0.79,-1.03,-1.28,0.00
15.79,-1.05,-0.56,0.24,-5.04,2.83,2.34,-0.79,-1.03,-1.28,0.00
15.829,-1.16,-0.48,0.42,-5.04,2.83,2.34,-0.79,-1.03,-1.28,0.00
15.829,-1.16,-0.48,0.42,-5.04,2.83,2.34,-0.77,-0.33,-1.08,0.00
15.83,-1.16,-0.48,0.42,-5.93,3.66,4.30,-0.77,-0.33,-1.08,0.00
15.868,-1.16,-0.48,0.42,-6.84,4.03,4.02,-0.77,-0.33,-1.08,0.00
15.908,-1.16,-0.48,0.42,-8.96,3.51,3.01,-0.77,-0.33,-1.08,0.00
15.909,-1.42,-0.50,0.36,-8.96,3.51,3.01,-0.77,-0.33,-1.08,0.00
15.91,-1.42,-0.50,0.36,-8.96,3.51,3.01,-0.20,0.01,-0.65,0.00
15.949,-1.42,-0.50,0.36,-9.36,4.05,4.56,-0.20,0.01,-0.65,0.00
15.987,-1.42,-0.50,0.36,-9.36,4.05,4.56,0.23,-0.01,0.09,0.00
15.988,-1.66,-0.40,0.57,-9.36,4.05,4.56,0.23,-0.01,0.09,0.00
15.988,-1.66,-0.40,0.57,-10.91,4.48,5.23,0.23,-0.01,0.09,0.00
16.027,-1.66,-0.40,0.57,-10.91,4.48,5.23,1.14,-0.07,1.99,0.00
16.028,-1.34,-0.71,0.30,-10.91,4.48,5.23,1.14,-0.07,1.99,0.00
16.028,-1.34,-0.71,0.30,-8.85,3.47,2.66,1.14,-0.07,1.99,0.00
16.066,-1.34,-0.71,0.30,-5.17,-1.07,1.45,1.14,-0.07,1.99,0.00
16.106,-1.34,-0.71,0.30,-5.17,-1.07,1.45,1.46,-0.32,2.84,0.00
16.106,-1.34,-0.71,0.30,-0.98,-3.29,2.44,1.46,-0.32,2.84,0.00
16.107,-0.86,-0.98,0.44,-0.98,-3.29,2.44,1.46,-0.32,2.84,0.00
16.145,-0.86,-0.98,0.44,0.59,-4.50,2.46,1.46,-0.32,2.84,0.00
16.185,-0.86,-0.98,0.44,0.59,-4.50,2.46,2.16,1.28,2.09,0.00
16.186,-0.86,-0.98,0.44,-1.28,-4.73,1.63,2.16,1.28,2.09,0.00
16.187,-1.06,-0.96,0.36,-1.28,-4.73,1.63,2.16,1.28,2.09,0.00
16.224,-1.06,-0.96,0.36,-3.83,-6.01,2.85,2.16,1.28,2.09,0.00
16.225,-1.18,-0.98,0.34,-3.83,-6.01,2.85,2.16,1.28,2.09,0.00
16.264,-1.18,-0.98,0.34,-3.83,-6.01,2.85,2.06,1.54,2.23,0.00
16.265,-1.18,-0.98,0.34,-1.14,-6.82,1.05,2.06,1.54,2.23,0.00
16.304,-1.18,-0.98,0.34,-1.14,-6.82,1.05,1.25,-0.61,2.78,0.00
16.304,-1.18,-0.98,0.34,0.76,-7.34,0.21,1.25,-0.61,2.78,0.00
16.305,-0.88,-0.92,0.31,0.76,-7.34,0.21,1.25,-0.61,2.78,0.00
16.343,-0.88,-0.92,0.31,2.12,-8.27,0.74,1.25,-0.61,2.78,0.00
16.383,-0.88,-0.92,0.31,2.12,-8.27,0.74,0.85,-1.55,2.80,0.00
16.384,-0.63,-0.83,0.43,2.12,-8.27,0.74,0.85,-1.55,2.80,0.00
16.384,-0.63,-0.83,0.43,3.13,-8.63,0.75,0.85,-1.55,2.80,0.00
16.424,-0.63,-0.83,0.43,5.03,-8.52,-1.48,0.85,-1.55,2.80,0.00
16.425,-0.27,-0.56,0.19,5.03,-8.52,-1.48,0.85,-1.55,2.80,0.00
16.462,-0.27,-0.56,0.19,6.44,-7.09,-2.91,0.85,-1.55,2.80,0.00
16.463,-0.27,-0.56,0.19,6.44,-7.09,-2.91,1.11,-1.69,2.43,0.00
16.502,-0.27,-0.56,0.19,6.44,-7.09,-2.91,0.56,-1.20,1.37,0.00
16.503,-0.27,-0.56,0.19,3.76,-5.88,-2.41,0.56,-1.20,1.37,0.00
16.503,-0.41,-0.28,0.35,3.76,-5.88,-2.41,0.56,-1.20,1.37,0.00
16.541,-0.41,-0.28,0.35,4.57,-4.68,-0.69,0.56,-1.20,1.37,0.00
16.58,-0.41,-0.28,0.35,4.57,-4.68,-0.69,0.37,-0.56,0.38,0.00
16.581,-0.74,-0.12,0.72,4.57,-4.68,-0.69,0.37,-0.56,0.38,0.00
16.582,-0.74,-0.12,0.72,1.22,-4.12,1.46,0.37,-0.56,0.38,0.00
16.62,-0.94,0.12,0.85,1.22,-4.12,1.46,0.37,-0.56,0.38,0.00
16.621,-0.94,0.12,0.85,-1.68,-2.45,3.37,0.37,-0.56,0.38,0.00
16.659,-0.94,0.12,0.85,-1.68,-2.45,3.37,0.32,-0.97,-0.18,0.00
16.66,-0.94,0.12,0.85,-1.84,-1.34,2.16,0.32,-0.97,-0.18,0.00
16.699,-0.94,0.12,0.85,-1.84,-1.34,2.16,0.95,-2.41,-0.13,0.00
16.7,-0.58,0.27,0.61,-1.84,-1.34,2.16,0.95,-2.41,-0.13,0.00
16.7,-0.58,0.27,0.61,0.81,0.09,0.74,0.95,-2.41,-0.13,0.00
16.738,-0.58,0.27,0.61,0.83,-0.90,-2.12,0.95,-2.41,-0.13,0.00
16.778,-0.58,0.27,0.61,0.83,-0.90,-2.12,1.29,-1.58,-0.40,0.00
16.779,-0.49,0.24,0.22,0.83,-0.90,-2.12,1.29,-1.58,-0.40,0.00
16.779,-0.49,0.24,0.22,1.24,-1.11,-5.22,1.29,-1.58,-0.40,0.00
16.818,-0.54,0.25,0.62,1.24,-1.11,-5.22,1.29,-1.58,-0.40,0.00
16.818,-0.54,0.25,0.62,0.65,-0.57,-4.05,1.29,-1.58,-0.40,0.00
16.857,-0.54,0.25,0.62,0.65,-0.57,-4.05,0.14,-0.81,-0.81,0.00
16.858,-0.54,0.25,0.62,0.46,-0.50,-0.95,0.14,-0.81,-0.81,0.00
16.896,-0.54,0.25,0.62,0.46,-0.50,-0.95,0.31,-0.15,-1.20,0.00
16.897,-0.67,0.26,0.75,0.46,-0.50,-0.95,0.31,-0.15,-1.20,0.00
16.897,-0.67,0.26,0.75,-0.35,-0.54,2.05,0.31,-0.15,-1.20,0.00
16.936,-0.67,0.26,0.75,-0.86,0.17,-1.21,0.31,-0.15,-1.20,0.00
16.976,-0.67,0.26,0.75,-0.86,0.17,-1.21,0.43,-0.62,-1.09,0.00
16.977,-0.54,0.29,0.70,-0.86,0.17,-1.21,0.43,-0.62,-1.09,0.00
16.977,-0.54,0.29,0.70,0.17,0.43,-1.07,0.43,-0.62,-1.09,0.00
17.015,-0.44,0.20,0.65,0.17,0.43,-1.07,0.43,-0.62,-1.09,0.00
17.016,-0.44,0.20,0.65,1.31,0.16,0.53,0.43,-0.62,-1.09,0.00
17.054,-0.44,0.20,0.65,1.31,0.16,0.53,0.52,-0.54,-1.20,0.00
17.055,-0.44,0.20,0.65,1.37,-0.32,-1.19,0.52,-0.54,-1.20,0.00
17.095,-0.44,0.20,0.65,1.37,-0.32,-1.19,0.46,-0.32,-1.55,0.00
17.095,-0.57,0.14,0.83,1.37,-0.32,-1.19,0.46,-0.32,-1.55,0.00
17.096,-0.57,0.14,0.83,0.56,-0.34,-1.72,0.46,-0.32,-1.55,0.00
17.134,-0.57,0.14,0.83,-0.04,-0.55,1.75,0.46,-0.32,-1.55,0.00
17.174,-0.57,0.14,0.83,-0.04,-0.55,1.75,0.59,-0.17,-1.82,0.00
17.175,-0.57,0.14,0.83,-0.71,-1.03,3.83,0.59,-0.17,-1.82,0.00
17.175,-0.64,0.04,1.11,-0.71,-1.03,3.83,0.59,-0.17,-1.82,0.00
17.213,-0.64,0.04,1.11,0.19,-1.15,2.10,0.59,-0.17,-1.82,0.00
17.252,-0.60,0.01,0.91,0.19,-1.15,2.10,0.59,-0.17,-1.82,0.00
17.253,-0.60,0.01,0.91,0.19,-1.15,2.10,1.26,-0.32,-1.96,0.00
17.254,-0.60,0.01,0.91,0.03,-1.19,1.29,1.26,-0.32,-1.96,0.00
17.292,-0.60,0.01,0.91,0.03,-1.19,1.29,1.42,-0.38,-1.94,0.00
17.293,-0.60,0.01,0.91,-0.67,-1.19,-0.30,1.42,-0.38,-1.94,0.00
17.293,-0.58,-0.00,0.71,-0.67,-1.19,-0.30,1.42,-0.38,-1.94,0.00
17.332,-0.58,-0.00,0.71,0.49,-1.23,-0.93,1.42,-0.38,-1.94,0.00
17.371,-0.58,-0.00,0.71,0.49,-1.23,-0.93,0.90,-0.54,-1.83,0.00
17.372,-0.40,-0.05,0.99,0.49,-1.23,-0.93,0.90,-0.54,-1.83,0.00
17.372,-0.40,-0.05,0.99,1.70,-1.25,1.60,0.90,-0.54,-1.83,0.00
17.411,-0.40,-0.05,0.99,1.90,-1.73,2.27,0.90,-0.54,-1.83,0.00
17.45,-0.40,-0.05,0.99,1.90,-1.73,2.27,1.47,-0.02,-2.05,0.00
17.451,-0.39,-0.12,0.79,1.90,-1.73,2.27,1.47,-0.02,-2.05,0.00
17.451,-0.39,-0.12,0.79,2.03,-2.10,0.10,1.47,-0.02,-2.05,0.00
17.49,-0.38,-0.18,0.64,2.03,-2.10,0.10,1.47,-0.02,-2.05,0.00
17.49,-0.38,-0.18,0.64,1.90,-2.30,-0.94,1.47,-0.02,-2.05,0.00
17.529,-0.38,-0.18,0.64,2.45,-2.73,-1.19,1.47,-0.02,-2.05,0.00
17.529,-0.38,-0.18,0.64,2.45,-2.73,-1.19,1.68,0.30,-2.18,0.00
17.569,-0.38,-0.18,0.64,2.96,-3.32,-2.09,1.68,0.30,-2.18,0.00
17.57,-0.38,-0.18,0.64,2.96,-3.32,-2.09,1.80,0.98,-2.49,0.00
17.57,-0.41,-0.34,0.43,2.96,-3.32,-2.09,1.80,0.98,-2.49,0.00
17.61,-0.41,-0.34,0.43,2.45,-4.26,-3.06,1.80,0.98,-2.49,0.00
17.648,-0.41,-0.34,0.43,2.45,-4.26,-3.06,1.57,1.89,-3.17,0.00
17.649,-0.62,-0.52,0.30,2.45,-4.26,-3.06,1.57,1.89,-3.17,0.00
17.649,-0.62,-0.52,0.30,1.86,-4.46,-3.20,1.57,1.89,-3.17,0.00
17.687,-0.99,-0.62,0.31,1.86,-4.46,-3.20,1.57,1.89,-3.17,0.00
17.688,-0.99,-0.62,0.31,-1.11,-4.32,-0.61,1.57,1.89,-3.17,0.00
17.728,-0.99,-0.62,0.31,-1.11,-4.32,-0.61,1.32,2.27,-3.75,0.00
17.728,-0.99,-0.62,0.31,-1.75,-3.76,-1.78,1.32,2.27,-3.75,0.00
17.766,-1.16,-0.74,0.26,-1.75,-3.76,-1.78,1.32,2.27,-3.75,0.00
17.767,-1.16,-0.74,0.26,-1.75,-3.76,-1.78,1.23,2.36,-3.69,0.00
17.767,-1.16,-0.74,0.26,-2.72,-3.80,-0.70,1.23,2.36,-3.69,0.00
17.806,-1.16,-0.74,0.26,-4.06,-2.90,-1.37,1.23,2.36,-3.69,0.00
17.846,-0.96,-0.73,0.27,-4.06,-2.90,-1.37,1.23,2.36,-3.69,0.00
17.846,-0.96,-0.73,0.27,-4.06,-2.90,-1.37,0.78,1.87,-3.33,0.00
17.847,-0.96,-0.73,0.27,-2.06,-1.85,-0.52,0.78,1.87,-3.33,0.00
17.885,-1.14,-0.71,0.41,-2.06,-1.85,-0.52,0.78,1.87,-3.33,0.00
17.885,-1.14,-0.71,0.41,-1.91,-0.70,1.00,0.78,1.87,-3.33,0.00
17.925,-1.14,-0.71,0.41,-1.91,-0.70,1.00,0.76,2.77,-3.42,0.00
17.925,-1.14,-0.71,0.41,-4.93,0.14,2.28,0.76,2.77,-3.42,0.00
17.964,-1.14,-0.71,0.41,-4.93,0.14,2.28,1.55,3.03,-2.37,0.00
17.965,-1.31,-0.53,0.04,-4.93,0.14,2.28,1.55,3.03,-2.37,0.00
17.966,-1.31,-0.53,0.04,-6.95,1.99,-0.60,1.55,3.03,-2.37,0.00
18.004,-1.31,-0.53,0.04,-6.60,2.73,-1.41,1.55,3.03,-2.37,0.00
18.044,-1.31,-0.53,0.04,-6.60,2.73,-1.41,0.89,1.39,-0.98,0.00
18.044,-1.15,-0.37,0.06,-6.60,2.73,-1.41,0.89,1.39,-0.98,0.00
18.045,-1.15,-0.37,0.06,-5.55,3.96,-0.81,0.89,1.39,-0.98,0.00
18.083,-1.01,-0.34,0.22,-5.55,3.96,-0.81,0.89,1.39,-0.98,0.00
18.083,-1.01,-0.34,0.22,-4.36,4.39,-0.78,0.89,1.39,-0.98,0.00
18.122,-1.01,-0.34,0.22,-4.36,4.39,-0.78,0.56,0.68,-0.18,0.00
18.122,-1.01,-0.34,0.22,-3.69,4.26,0.85,0.56,0.68,-0.18,0.00
18.162,-1.01,-0.34,0.22,-3.69,4.26,0.85,1.04,1.69,0.23,0.00
18.162,-1.23,-0.46,0.27,-3.69,4.26,0.85,1.04,1.69,0.23,0.00
18.163,-1.23,-0.46,0.27,-4.52,3.82,1.64,1.04,1.69,0.23,0.00
18.202,-1.23,-0.46,0.27,-5.96,2.02,1.43,1.04,1.69,0.23,0.00
18.241,-1.23,-0.46,0.27,-5.96,2.02,1.43,1.35,2.21,1.05,0.00
18.241,-1.71,-0.71,0.28,-5.96,2.02,1.43,1.35,2.21,1.05,0.00
18.241,-1.71,-0.71,0.28,-8.39,-0.04,2.45,1.35,2.21,1.05,0.00
18.281,-1.71,-0.71,0.28,-10.52,-1.38,0.74,1.35,2.21,1.05,0.00
18.32,-1.71,-0.71,0.28,-8.49,-3.78,-0.26,1.35,2.21,1.05,0.00
18.321,-1.80,-0.87,0.02,-8.49,-3.78,-0.26,1.35,2.21,1.05,0.00
18.321,-1.80,-0.87,0.02,-8.49,-3.78,-0.26,1.02,1.55,2.72,0.00
18.363,-1.27,-1.14,0.16,-8.49,-3.78,-0.26,1.02,1.55,2.72,0.00
18.363,-1.27,-1.14,0.16,-8.49,-3.78,-0.26,-0.24,-0.05,4.52,0.00
18.364,-1.27,-1.14,0.16,-6.03,-7.64,0.62,-0.24,-0.05,4.52,0.00
18.4,-1.27,-1.14,0.16,-0.55,-9.84,1.18,-0.24,-0.05,4.52,0.00
18.439,-1.27,-1.14,0.16,-0.55,-9.84,1.18,-0.17,0.00,4.36,0.00
18.44,-1.27,-1.14,0.16,1.06,-10.10,2.55,-0.17,0.00,4.36,0.00
18.44,-0.89,-0.97,0.25,1.06,-10.10,2.55,-0.17,0.00,4.36,0.00
18.478,-0.89,-0.97,0.25,2.62,-10.18,0.89,-0.17,0.00,4.36,0.00
18.518,-0.89,-0.97,0.25,2.62,-10.18,0.89,0.18,0.15,3.40,0.00
18.519,-0.57,-0.71,0.09,2.62,-10.18,0.89,0.18,0.15,3.40,0.00
18.519,-0.57,-0.71,0.09,4.25,-9.52,0.44,0.18,0.15,3.40,0.00
18.557,-0.57,-0.71,0.09,6.20,-8.94,-0.63,0.18,0.15,3.40,0.00
18.558,-0.14,-0.48,0.02,6.20,-8.94,-0.63,0.18,0.15,3.40,0.00
18.597,-0.14,-0.48,0.02,6.20,-8.94,-0.63,0.23,-0.62,2.30,0.00
18.598,-0.14,-0.48,0.02,8.51,-7.95,-0.54,0.23,-0.62,2.30,0.00
18.636,-0.14,-0.48,0.02,8.51,-7.95,-0.54,0.61,-0.10,0.75,0.00
18.637,-0.11,-0.32,-0.06,8.51,-7.95,-0.54,0.61,-0.10,0.75,0.00
18.637,-0.11,-0.32,-0.06,8.35,-7.07,-0.82,0.61,-0.10,0.75,0.00
18.676,-0.11,-0.32,-0.06,7.43,-6.23,-1.73,0.61,-0.10,0.75,0.00
18.716,-0.11,-0.32,-0.06,6.02,-5.43,-1.99,0.61,-0.10,0.75,0.00
18.717,-0.11,-0.32,-0.06,6.02,-5.43,-1.99,0.50,-0.04,-0.60,0.00
18.717,-0.35,-0.24,-0.15,6.02,-5.43,-1.99,0.50,-0.04,-0.60,0.00
18.755,-0.90,-0.10,0.11,6.02,-5.43,-1.99,0.50,-0.04,-0.60,0.00
18.755,-0.90,-0.10,0.11,2.73,-4.27,-2.03,0.50,-0.04,-0.60,0.00
18.794,-0.90,-0.10,0.11,2.73,-4.27,-2.03,-0.21,-0.58,-1.56,0.00
18.795,-0.90,-0.10,0.11,-0.14,-2.46,0.75,-0.21,-0.58,-1.56,0.00
18.836,-0.90,-0.10,0.11,-0.14,-2.46,0.75,-0.24,-0.14,-2.00,0.00
18.837,-1.78,0.28,0.28,-0.14,-2.46,0.75,-0.24,-0.14,-2.00,0.00
18.837,-1.78,0.28,0.28,-6.99,0.17,1.12,-0.24,-0.14,-2.00,0.00
18.874,-1.78,0.28,0.28,-8.92,3.98,2.30,-0.24,-0.14,-2.00,0.00
18.913,-1.78,0.28,0.28,-7.10,5.02,0.74,-0.24,-0.14,-2.00,0.00
18.914,-1.63,0.54,0.17,-7.10,5.02,0.74,-0.24,-0.14,-2.00,0.00
18.914,-1.63,0.54,0.17,-7.10,5.02,0.74,0.25,-0.65,-0.91,0.00
18.952,-1.41,0.48,0.22,-7.10,5.02,0.74,0.25,-0.65,-0.91,0.00
18.953,-1.41,0.48,0.22,-2.84,3.91,-1.94,0.25,-0.65,-0.91,0.00
18.993,-1.41,0.48,0.22,-2.84,3.91,-1.94,0.37,-0.17,0.04,0.00
18.993,-1.41,0.48,0.22,-4.23,4.15,1.16,0.37,-0.17,0.04,0.00
19.032,-1.54,0.42,0.18,-4.23,4.15,1.16,0.37,-0.17,0.04,0.00
19.032,-1.54,0.42,0.18,-4.23,4.15,1.16,0.33,0.47,0.60,0.00
19.033,-1.54,0.42,0.18,-6.36,3.72,1.39,0.33,0.47,0.60,0.00
19.071,-1.54,0.42,0.18,-4.24,2.02,-0.08,0.33,0.47,0.60,0.00
19.111,-1.54,0.42,0.18,-4.24,2.02,-0.08,0.03,-0.28,1.58,0.00
19.112,-1.12,0.19,0.22,-4.24,2.02,-0.08,0.03,-0.28,1.58,0.00
19.112,-1.12,0.19,0.22,-1.73,-0.14,0.78,0.03,-0.28,1.58,0.00
19.15,-1.12,0.19,0.22,0.17,-1.92,0.62,0.03,-0.28,1.58,0.00
19.151,-0.79,0.02,0.19,0.17,-1.92,0.62,0.03,-0.28,1.58,0.00
19.19,-0.79,0.02,0.19,0.17,-1.92,0.62,-0.05,-0.20,1.85,0.00
19.191,-0.79,0.02,0.19,1.70,-3.44,0.26,-0.05,-0.20,1.85,0.00
19.229,-0.79,0.02,0.19,1.70,-3.44,0.26,-0.02,-0.19,1.62,0.00
19.23,-0.50,-0.09,0.10,1.70,-3.44,0.26,-0.02,-0.19,1.62,0.00
19.23,-0.50,-0.09,0.10,2.87,-4.80,-0.65,-0.02,-0.19,1.62,0.00
19.269,-0.50,-0.09,0.10,4.60,-5.43,-0.72,-0.02,-0.19,1.62,0.00
19.309,-0.50,-0.09,0.10,4.60,-5.43,-0.72,-0.04,-0.03,0.85,0.00
19.31,-0.29,-0.19,0.04,4.60,-5.43,-0.72,-0.04,-0.03,0.85,0.00
19.31,-0.29,-0.19,0.04,5.38,-6.15,-1.15,-0.04,-0.03,0.85,0.00
19.348,-0.18,-0.28,-0.03,5.38,-6.15,-1.15,-0.04,-0.03,0.85,0.00
19.349,-0.18,-0.28,-0.03,6.24,-6.55,-1.66,-0.04,-0.03,0.85,0.00
19.388,-0.18,-0.28,-0.03,6.24,-6.55,-1.66,-0.14,0.10,-0.22,0.00
19.388,-0.18,-0.28,-0.03,6.71,-6.69,-1.91,-0.14,0.10,-0.22,0.00
19.427,-0.18,-0.28,-0.03,6.71,-6.69,-1.91,-0.48,0.27,-1.49,0.00
19.428,-0.54,-0.47,-0.05,6.71,-6.69,-1.91,-0.48,0.27,-1.49,0.00
19.428,-0.54,-0.47,-0.05,5.00,-6.84,-2.14,-0.48,0.27,-1.49,0.00
19.467,-0.54,-0.47,-0.05,2.72,-7.47,-2.01,-0.48,0.27,-1.49,0.00
19.507,-0.54,-0.47,-0.05,2.72,-7.47,-2.01,-1.16,-0.00,-2.64,0.00
19.508,-0.54,-0.47,-0.05,0.65,-8.08,-0.23,-1.16,-0.00,-2.64,0.00
19.508,-0.93,-0.69,0.19,0.65,-8.08,-0.23,-1.16,-0.00,-2.64,0.00
19.546,-0.93,-0.69,0.19,-1.26,-6.13,1.00,-1.16,-0.00,-2.64,0.00
19.586,-0.93,-0.69,0.19,-1.26,-6.13,1.00,-1.18,0.39,-3.25,0.00
19.587,-0.93,-0.69,0.19,-2.83,-3.48,4.70,-1.18,0.39,-3.25,0.00
19.587,-1.22,-0.52,0.60,-2.83,-3.48,4.70,-1.18,0.39,-3.25,0.00
19.625,-1.22,-0.52,0.60,-2.83,-3.48,4.70,-0.34,0.55,-2.80,0.00
19.626,-1.22,-0.52,0.60,-4.23,-3.54,0.51,-0.34,0.55,-2.80,0.00
19.626,-1.28,-0.72,0.23,-4.23,-3.54,0.51,-0.34,0.55,-2.80,0.00
19.665,-1.28,-0.72,0.23,-3.52,-3.76,1.47,-0.34,0.55,-2.80,0.00
19.705,-1.28,-0.72,0.23,-3.52,-3.76,1.47,-0.79,0.17,-2.68,0.00
19.706,-1.44,-0.68,0.30,-3.52,-3.76,1.47,-0.79,0.17,-2.68,0.00
19.706,-1.44,-0.68,0.30,-6.53,-2.59,2.17,-0.79,0.17,-2.68,0.00
19.743,-1.44,-0.68,0.30,-4.96,-0.55,1.85,-0.79,0.17,-2.68,0.00
19.784,-1.25,-0.54,0.13,-4.96,-0.55,1.85,-0.79,0.17,-2.68,0.00
19.784,-1.25,-0.54,0.13,-4.96,-0.55,1.85,-1.04,-0.84,-2.00,0.00
19.784,-1.25,-0.54,0.13,-4.86,0.58,0.17,-1.04,-0.84,-2.00,0.00
19.823,-1.08,-0.47,0.40,-4.86,0.58,0.17,-1.04,-0.84,-2.00,0.00
19.824,-1.08,-0.47,0.40,-2.70,1.45,0.58,-1.04,-0.84,-2.00,0.00
19.862,-1.08,-0.47,0.40,-2.70,1.45,0.58,-1.73,-1.27,-1.50,0.00
19.863,-1.08,-0.47,0.40,-3.78,2.31,3.66,-1.73,-1.27,-1.50,0.00
19.902,-1.08,-0.47,0.40,-3.78,2.31,3.66,-1.17,-0.84,-1.30,0.00
19.903,-1.06,-0.34,0.24,-3.78,2.31,3.66,-1.17,-0.84,-1.30,0.00
19.903,-1.06,-0.34,0.24,-3.89,3.70,2.09,-1.17,-0.84,-1.30,0.00
19.941,-1.06,-0.34,0.24,-3.74,4.14,1.02,-1.17,-0.84,-1.30,0.00
19.981,-1.06,-0.34,0.24,-4.39,3.89,3.13,-1.17,-0.84,-1.30,0.00
19.981,-1.09,-0.37,0.37,-4.39,3.89,3.13,-1.17,-0.84,-1.30,0.00
19.981,-1.09,-0.37,0.37,-4.39,3.89,3.13,-0.91,-0.47,-0.98,0.00
20.021,-1.24,-0.34,0.22,-4.39,3.89,3.13,-0.91,-0.47,-0.98,0.00
20.022,-1.24,-0.34,0.22,-5.49,4.33,2.51,-0.91,-0.47,-0.98,0.00
20.06,-1.24,-0.34,0.22,-5.49,4.33,2.51,-0.16,0.07,-0.74,0.00
20.061,-1.24,-0.34,0.22,-6.29,4.38,1.35,-0.16,0.07,-0.74,0.00
20.1,-1.24,-0.34,0.22,-6.73,4.23,1.98,-0.16,0.07,-0.74,0.00
20.101,-1.29,-0.42,0.45,-6.73,4.23,1.98,-0.16,0.07,-0.74,0.00
20.101,-1.29,-0.42,0.45,-6.73,4.23,1.98,-0.03,0.25,-0.24,0.00
20.14,-1.29,-0.42,0.45,-6.34,2.90,5.37,-0.03,0.25,-0.24,0.00
20.178,-1.29,-0.42,0.45,-6.34,2.90,5.37,0.94,0.55,0.20,0.00
20.179,-1.57,-0.40,0.59,-6.34,2.90,5.37,0.94,0.55,0.20,0.00
20.179,-1.57,-0.40,0.59,-8.93,3.42,5.35,0.94,0.55,0.20,0.00
20.218,-1.50,-0.58,0.21,-8.93,3.42,5.35,0.94,0.55,0.20,0.00
20.219,-1.50,-0.58,0.21,-8.28,3.26,2.15,0.94,0.55,0.20,0.00
20.259,-1.50,-0.58,0.21,-8.28,3.26,2.15,1.89,0.62,1.58,0.00
20.259,-1.50,-0.58,0.21,-6.79,0.19,0.11,1.89,0.62,1.58,0.00
20.297,-1.50,-0.58,0.21,-6.79,0.19,0.11,1.34,0.02,2.79,0.00
20.298,-1.46,-0.94,0.63,-6.79,0.19,0.11,1.34,0.02,2.79,0.00
20.299,-1.46,-0.94,0.63,-5.17,-2.99,1.13,1.34,0.02,2.79,0.00
20.337,-1.46,-0.94,0.63,-5.59,-5.96,5.73,1.34,0.02,2.79,0.00
20.377,-1.46,-0.94,0.63,-5.59,-5.96,5.73,1.98,-0.44,3.32,0.00
20.377,-1.37,-1.02,0.42,-5.59,-5.96,5.73,1.98,-0.44,3.32,0.00
20.378,-1.37,-1.02,0.42,-4.68,-7.90,1.53,1.98,-0.44,3.32,0.00
20.416,-1.37,-1.02,0.42,-1.67,-7.52,-1.09,1.98,-0.44,3.32,0.00
20.417,-1.11,-0.90,0.59,-1.67,-7.52,-1.09,1.98,-0.44,3.32,0.00
20.455,-1.11,-0.90,0.59,-1.50,-8.83,1.17,1.98,-0.44,3.32,0.00
20.456,-1.11,-0.90,0.59,-1.50,-8.83,1.17,1.18,-1.87,3.42,0.00
20.496,-1.11,-0.90,0.59,-1.50,-8.83,1.17,1.10,-2.26,3.24,0.00
20.496,-0.56,-0.74,0.52,-1.50,-8.83,1.17,1.10,-2.26,3.24,0.00
20.497,-0.56,-0.74,0.52,2.23,-9.37,-0.04,1.10,-2.26,3.24,0.00
20.539,-0.56,-0.74,0.52,3.18,-9.19,-1.08,1.10,-2.26,3.24,0.00
20.574,-0.56,-0.74,0.52,3.18,-9.19,-1.08,1.42,-1.59,2.27,0.00
20.574,-0.39,-0.51,0.26,3.18,-9.19,-1.08,1.42,-1.59,2.27,0.00
20.575,-0.39,-0.51,0.26,3.50,-8.31,-3.55,1.42,-1.59,2.27,0.00
20.614,-0.39,-0.51,0.26,3.42,-8.35,-3.98,1.42,-1.59,2.27,0.00
20.653,-0.39,-0.51,0.26,3.42,-8.35,-3.98,0.96,-1.31,1.49,0.00
20.654,-0.28,-0.40,0.15,3.42,-8.35,-3.98,0.96,-1.31,1.49,0.00
20.654,-0.28,-0.40,0.15,3.49,-8.03,-5.10,0.96,-1.31,1.49,0.00
20.693,-0.28,-0.40,0.15,3.49,-8.03,-5.10,0.36,-1.51,0.73,0.00
20.693,-0.29,-0.18,0.14,3.49,-8.03,-5.10,0.36,-1.51,0.73,0.00
20.694,-0.29,-0.18,0.14,2.25,-6.64,-5.19,0.36,-1.51,0.73,0.00
20.733,-0.29,-0.18,0.14,2.69,-5.60,-5.60,0.36,-1.51,0.73,0.00
20.772,-0.29,-0.18,0.14,2.69,-5.60,-5.60,-0.48,-0.62,-0.07,0.00
20.773,-0.38,-0.15,0.35,2.69,-5.60,-5.60,-0.48,-0.62,-0.07,0.00
20.773,-0.38,-0.15,0.35,2.13,-5.46,-4.29,-0.48,-0.62,-0.07,0.00
20.811,-0.38,-0.15,0.35,0.81,-4.64,-2.50,-0.48,-0.62,-0.07,0.00
20.851,-0.38,-0.15,0.35,0.57,-3.87,-0.78,-0.48,-0.62,-0.07,0.00
20.852,-0.55,-0.12,0.62,0.57,-3.87,-0.78,-0.48,-0.62,-0.07,0.00
20.852,-0.55,-0.12,0.62,0.57,-3.87,-0.78,-0.92,0.60,-0.95,0.00
20.891,-0.72,-0.28,0.28,0.57,-3.87,-0.78,-0.92,0.60,-0.95,0.00
20.892,-0.72,-0.28,0.28,-1.08,-3.87,-1.59,-0.92,0.60,-0.95,0.00
20.929,-0.72,-0.28,0.28,-1.08,-3.87,-1.59,-0.72,0.82,-1.21,0.00
20.93,-0.72,-0.28,0.28,-0.44,-4.59,-4.52,-0.72,0.82,-1.21,0.00
20.969,-0.72,-0.28,0.28,-0.44,-4.59,-4.52,-1.92,1.76,-1.16,0.00
20.969,-0.60,-0.53,0.62,-0.44,-4.59,-4.52,-1.92,1.76,-1.16,0.00
20.969,-0.60,-0.53,0.62,2.32,-5.38,-1.52,-1.92,1.76,-1.16,0.00
21.009,-0.60,-0.53,0.62,0.54,-5.06,2.88,-1.92,1.76,-1.16,0.00
21.048,-0.60,-0.53,0.62,0.54,-5.06,2.88,-1.52,3.28,-2.34,0.00
21.049,-1.10,-0.60,0.43,0.54,-5.06,2.88,-1.52,3.28,-2.34,0.00
21.049,-1.10,-0.60,0.43,-2.62,-4.16,0.52,-1.52,3.28,-2.34,0.00
21.088,-1.08,-0.68,0.36,-2.62,-4.16,0.52,-1.52,3.28,-2.34,0.00
21.089,-1.08,-0.68,0.36,-1.26,-3.28,-1.16,-1.52,3.28,-2.34,0.00
21.129,-1.08,-0.68,0.36,-1.26,-3.28,-1.16,-1.83,2.03,-2.55,0.00
21.13,-1.08,-0.68,0.36,-2.53,-2.74,1.26,-1.83,2.03,-2.55,0.00
21.167,-1.08,-0.68,0.36,-5.09,-0.83,5.92,-1.83,2.03,-2.55,0.00
21.168,-1.26,-0.54,0.59,-5.09,-0.83,5.92,-1.83,2.03,-2.55,0.00
21.168,-1.26,-0.54,0.59,-5.09,-0.83,5.92,-1.96,0.60,-2.44,0.00
21.208,-1.26,-0.54,0.59,-4.23,0.84,1.60,-1.96,0.60,-2.44,0.00
21.247,-1.26,-0.54,0.59,-4.23,0.84,1.60,-1.51,0.14,-2.10,0.00
21.247,-1.19,-0.58,0.60,-4.23,0.84,1.60,-1.51,0.14,-2.10,0.00
21.248,-1.19,-0.58,0.60,-4.14,0.66,3.53,-1.51,0.14,-2.10,0.00
21.287,-1.19,-0.58,0.60,-6.81,1.55,8.04,-1.51,0.14,-2.10,0.00
21.288,-1.41,-0.39,0.75,-6.81,1.55,8.04,-1.51,0.14,-2.10,0.00
21.327,-1.41,-0.39,0.75,-6.81,1.55,8.04,-0.64,-0.17,-2.08,0.00
21.328,-1.41,-0.39,0.75,-7.57,3.78,5.33,-0.64,-0.17,-2.08,0.00
21.366,-1.41,-0.39,0.75,-7.57,3.78,5.33,0.24,-0.17,-1.23,0.00
21.366,-1.45,-0.27,0.30,-7.57,3.78,5.33,0.24,-0.17,-1.23,0.00
21.367,-1.45,-0.27,0.30,-7.87,5.51,0.47,0.24,-0.17,-1.23,0.00
21.406,-1.45,-0.27,0.30,-8.40,4.40,1.54,0.24,-0.17,-1.23,0.00
21.444,-1.45,-0.27,0.30,-6.84,5.12,3.49,0.24,-0.17,-1.23,0.00
21.445,-1.32,-0.22,0.55,-6.84,5.12,3.49,0.24,-0.17,-1.23,0.00
21.445,-1.32,-0.22,0.55,-6.84,5.12,3.49,-0.35,-0.30,-0.18,0.00
21.484,-1.35,-0.23,0.46,-6.84,5.12,3.49,-0.35,-0.30,-0.18,0.00
21.484,-1.35,-0.23,0.46,-6.32,5.83,3.55,-0.35,-0.30,-0.18,0.00
21.524,-1.35,-0.23,0.46,-6.32,5.83,3.55,0.31,0.08,0.51,0.00
21.525,-1.35,-0.23,0.46,-6.39,4.54,2.28,0.31,0.08,0.51,0.00
21.562,-1.35,-0.23,0.46,-3.48,1.18,2.68,0.31,0.08,0.51,0.00
21.563,-1.12,-0.63,0.56,-3.48,1.18,2.68,0.31,0.08,0.51,0.00
21.563,-1.12,-0.63,0.56,-3.48,1.18,2.68,0.82,0.33,1.58,0.00
21.603,-1.12,-0.63,0.56,-3.08,-1.12,3.39,0.82,0.33,1.58,0.00
21.642,-1.12,-0.63,0.56,-3.08,-1.12,3.39,1.54,1.26,1.71,0.00
21.643,-1.17,-0.82,0.45,-3.08,-1.12,3.39,1.54,1.26,1.71,0.00
21.643,-1.17,-0.82,0.45,-2.68,-2.84,2.52,1.54,1.26,1.71,0.00
21.681,-1.22,-0.85,0.44,-2.68,-2.84,2.52,1.54,1.26,1.71,0.00
21.682,-1.22,-0.85,0.44,-3.18,-3.99,1.44,1.54,1.26,1.71,0.00
21.722,-1.22,-0.85,0.44,-3.18,-3.99,1.44,1.38,1.41,1.98,0.00
21.722,-1.22,-0.85,0.44,-2.53,-4.87,2.47,1.38,1.41,1.98,0.00
21.761,-0.97,-0.91,0.46,-2.53,-4.87,2.47,1.38,1.41,1.98,0.00
21.761,-0.97,-0.91,0.46,-2.53,-4.87,2.47,1.02,0.69,2.62,0.00
21.762,-0.97,-0.91,0.46,-0.95,-6.01,2.79,1.02,0.69,2.62,0.00
21.801,-0.97,-0.91,0.46,1.20,-7.60,2.80,1.02,0.69,2.62,0.00
21.842,-0.97,-0.91,0.46,1.20,-7.60,2.80,1.10,0.64,2.73,0.00
21.843,-0.65,-0.84,0.36,1.20,-7.60,2.80,1.10,0.64,2.73,0.00
21.843,-0.65,-0.84,0.36,3.26,-8.32,2.32,1.10,0.64,2.73,0.00
21.88,-0.65,-0.84,0.36,4.63,-7.68,1.57,1.10,0.64,2.73,0.00
21.919,-0.65,-0.84,0.36,4.63,-7.68,1.57,1.13,0.44,2.05,0.00
21.92,-0.51,-0.65,0.19,4.63,-7.68,1.57,1.13,0.44,2.05,0.00
21.92,-0.51,-0.65,0.19,4.90,-7.43,0.82,1.13,0.44,2.05,0.00
21.958,-0.51,-0.65,0.19,6.26,-7.03,-3.21,1.13,0.44,2.05,0.00
21.959,-0.35,-0.49,-0.28,6.26,-7.03,-3.21,1.13,0.44,2.05,0.00
21.959,-0.35,-0.49,-0.28,6.26,-7.03,-3.21,0.75,-0.13,0.92,0.00
21.998,-0.35,-0.49,-0.28,6.25,-5.79,-4.32,0.75,-0.13,0.92,0.00
22.038,-0.35,-0.49,-0.28,6.83,-5.31,-2.08,0.75,-0.13,0.92,0.00
22.038,-0.40,-0.45,-0.01,6.83,-5.31,-2.08,0.75,-0.13,0.92,0.00
22.039,-0.40,-0.45,-0.01,6.83,-5.31,-2.08,-0.35,-0.49,0.02,0.00
22.077,-0.40,-0.45,-0.01,3.89,-5.42,-0.82,-0.35,-0.49,0.02,0.00
22.116,-0.66,-0.52,0.00,3.89,-5.42,-0.82,-0.35,-0.49,0.02,0.00
22.117,-0.66,-0.52,0.00,3.15,-5.44,-1.05,-0.35,-0.49,0.02,0.00
22.118,-0.66,-0.52,0.00,3.15,-5.44,-1.05,-0.24,0.33,-0.76,0.00
22.156,-0.66,-0.52,0.00,2.02,-4.66,-1.83,-0.24,0.33,-0.76,0.00
22.156,-0.92,-0.47,-0.04,2.02,-4.66,-1.83,-0.24,0.33,-0.76,0.00
22.196,-0.92,-0.47,-0.04,2.02,-4.66,-1.83,-0.41,0.20,-1.38,0.00
22.196,-0.92,-0.47,-0.04,0.02,-3.64,-1.33,-0.41,0.20,-1.38,0.00
22.235,-0.92,-0.47,-0.04,-0.18,-3.29,-1.63,-0.41,0.20,-1.38,0.00
22.236,-0.98,-0.51,0.05,-0.18,-3.29,-1.63,-0.41,0.20,-1.38,0.00
22.237,-0.98,-0.51,0.05,-0.18,-3.29,-1.63,-1.40,-0.31,-1.23,0.00
22.274,-0.98,-0.51,0.05,-0.44,-3.24,0.23,-1.40,-0.31,-1.23,0.00
22.315,-1.03,-0.55,0.19,-0.44,-3.24,0.23,-1.40,-0.31,-1.23,0.00
22.315,-1.03,-0.55,0.19,-1.04,-2.97,0.56,-1.40,-0.31,-1.23,0.00
22.316,-1.03,-0.55,0.19,-1.04,-2.97,0.56,-2.25,-0.91,-0.85,0.00
22.354,-0.89,-0.69,0.14,-1.04,-2.97,0.56,-2.25,-0.91,-0.85,0.00
22.354,-0.89,-0.69,0.14,-0.38,-2.86,-0.48,-2.25,-0.91,-0.85,0.00
22.393,-0.89,-0.69,0.14,-0.38,-2.86,-0.48,-2.83,-1.16,-0.26,0.00
22.394,-0.89,-0.69,0.14,0.45,-3.91,-0.20,-2.83,-1.16,-0.26,0.00
22.433,-0.89,-0.69,0.14,0.77,-4.98,2.58,-2.83,-1.16,-0.26,0.00
22.434,-0.92,-0.90,0.51,0.77,-4.98,2.58,-2.83,-1.16,-0.26,0.00
22.434,-0.92,-0.90,0.51,0.77,-4.98,2.58,-3.75,-0.96,-0.12,0.00
22.472,-0.92,-0.90,0.51,-0.93,-5.41,4.57,-3.75,-0.96,-0.12,0.00
22.512,-0.92,-0.90,0.51,-1.46,-4.87,3.72,-3.75,-0.96,-0.12,0.00
22.513,-1.02,-0.90,0.50,-1.46,-4.87,3.72,-3.75,-0.96,-0.12,0.00
22.513,-1.02,-0.90,0.50,-1.46,-4.87,3.72,-3.60,-0.68,-0.18,0.00
22.551,-0.81,-0.89,0.42,-1.46,-4.87,3.72,-3.60,-0.68,-0.18,0.00
22.552,-0.81,-0.89,0.42,-0.28,-4.16,4.46,-3.60,-0.68,-0.18,0.00
22.591,-0.81,-0.89,0.42,-0.28,-4.16,4.46,-3.54,-0.85,0.21,0.00
22.592,-0.81,-0.89,0.42,1.07,-4.53,3.33,-3.54,-0.85,0.21,0.00
22.63,-0.81,-0.89,0.42,1.07,-4.53,3.33,-4.25,-1.70,0.31,0.00
22.631,-0.69,-0.94,0.44,1.07,-4.53,3.33,-4.25,-1.70,0.31,0.00
22.631,-0.69,-0.94,0.44,2.20,-5.01,1.38,-4.25,-1.70,0.31,0.00
22.67,-0.69,-0.94,0.44,2.01,-4.69,5.31,-4.25,-1.70,0.31,0.00
22.71,-0.69,-0.94,0.44,2.01,-4.69,5.31,-4.48,-1.91,0.31,0.00
22.71,-0.68,-0.80,0.65,2.01,-4.69,5.31,-4.48,-1.91,0.31,0.00
22.711,-0.68,-0.80,0.65,1.85,-3.60,6.29,-4.48,-1.91,0.31,0.00
22.749,-0.53,-0.73,0.68,1.85,-3.60,6.29,-4.48,-1.91,0.31,0.00
22.749,-0.53,-0.73,0.68,2.75,-2.84,4.55,-4.48,-1.91,0.31,0.00
22.788,-0.53,-0.73,0.68,2.75,-2.84,4.55,-4.01,-2.04,0.46,0.00
22.789,-0.53,-0.73,0.68,3.61,-2.72,5.90,-4.01,-2.04,0.46,0.00
22.828,-0.53,-0.73,0.68,3.61,-2.72,5.90,-3.17,-1.58,0.28,0.00
22.829,-0.30,-0.66,0.84,3.61,-2.72,5.90,-3.17,-1.58,0.28,0.00
22.83,-0.30,-0.66,0.84,5.04,-2.37,7.90,-3.17,-1.58,0.28,0.00
22.867,-0.30,-0.66,0.84,5.81,-1.50,6.93,-3.17,-1.58,0.28,0.00
22.907,-0.30,-0.66,0.84,5.81,-1.50,6.93,-2.19,-1.08,-0.90,0.00
22.909,-0.58,-0.61,0.58,5.81,-1.50,6.93,-2.19,-1.08,-0.90,0.00
22.909,-0.58,-0.61,0.58,3.57,-0.62,4.27,-2.19,-1.08,-0.90,0.00
22.952,-0.58,-0.61,0.58,-0.24,-0.47,5.67,-2.19,-1.08,-0.90,0.00
22.986,-0.58,-0.61,0.58,-0.24,-0.47,5.67,-2.03,-1.20,-1.45,0.00
22.987,-1.00,-0.64,0.57,-0.24,-0.47,5.67,-2.03,-1.20,-1.45,0.00
22.987,-1.00,-0.64,0.57,-2.44,0.01,4.63,-2.03,-1.20,-1.45,0.00
23.026,-1.00,-0.64,0.57,-2.44,0.01,4.63,-1.78,-1.76,-1.20,0.00
23.027,-0.92,-0.57,0.54,-2.44,0.01,4.63,-1.78,-1.76,-1.20,0.00
23.028,-0.92,-0.57,0.54,-0.78,0.84,3.42,-1.78,-1.76,-1.20,0.00
23.065,-0.92,-0.57,0.54,-2.78,1.50,4.35,-1.78,-1.76,-1.20,0.00
23.105,-0.92,-0.57,0.54,-2.78,1.50,4.35,-0.90,-1.16,-0.89,0.00
23.106,-1.01,-0.62,0.52,-2.78,1.50,4.35,-0.90,-1.16,-0.89,0.00
23.106,-1.01,-0.62,0.52,-3.64,1.04,4.25,-0.90,-1.16,-0.89,0.00
23.146,-1.01,-0.62,0.52,-3.17,1.43,2.72,-0.90,-1.16,-0.89,0.00
23.184,-1.01,-0.62,0.52,-3.17,1.43,2.72,0.06,-0.15,-0.70,0.00
23.185,-1.09,-0.48,-0.01,-3.17,1.43,2.72,0.06,-0.15,-0.70,0.00
23.185,-1.09,-0.48,-0.01,-4.26,2.74,-1.67,0.06,-0.15,-0.70,0.00
23.224,-1.24,-0.45,0.38,-4.26,2.74,-1.67,0.06,-0.15,-0.70,0.00
23.224,-1.24,-0.45,0.38,-6.27,3.00,-1.39,0.06,-0.15,-0.70,0.00
23.263,-1.24,-0.45,0.38,-6.27,3.00,-1.39,-1.17,-1.69,-0.23,0.00
23.264,-1.24,-0.45,0.38,-5.80,3.05,3.12,-1.17,-1.69,-0.23,0.00
23.303,-1.24,-0.45,0.38,-5.80,3.05,3.12,-0.42,-0.38,0.67,0.00
23.304,-0.95,-0.44,0.49,-5.80,3.05,3.12,-0.42,-0.38,0.67,0.00
23.304,-0.95,-0.44,0.49,-3.30,2.65,3.68,-0.42,-0.38,0.67,0.00
23.342,-0.95,-0.44,0.49,-1.80,2.98,2.38,-0.42,-0.38,0.67,0.00
23.382,-0.95,-0.44,0.49,-1.80,2.98,2.38,0.41,-0.20,0.79,0.00
23.383,-1.25,-0.40,0.14,-1.80,2.98,2.38,0.41,-0.20,0.79,0.00
23.383,-1.25,-0.40,0.14,-5.30,2.67,-0.58,0.41,-0.20,0.79,0.00
23.421,-1.41,-0.47,0.17,-5.30,2.67,-0.58,0.41,-0.20,0.79,0.00
23.422,-1.41,-0.47,0.17,-3.88,2.27,-1.54,0.41,-0.20,0.79,0.00
23.46,-1.41,-0.47,0.17,-3.88,2.27,-1.54,0.32,-0.48,1.22,0.00
23.461,-1.41,-0.47,0.17,-6.43,0.94,-0.51,0.32,-0.48,1.22,0.00
23.501,-1.41,-0.47,0.17,-6.43,0.94,-0.51,0.29,-0.21,1.84,0.00
23.502,-1.41,-0.47,0.17,-4.04,-0.09,-1.42,0.29,-0.21,1.84,0.00
23.502,-1.23,-0.56,0.15,-4.04,-0.09,-1.42,0.29,-0.21,1.84,0.00
23.54,-1.23,-0.56,0.15,-2.98,-1.33,-0.74,0.29,-0.21,1.84,0.00
23.579,-1.23,-0.56,0.15,-2.98,-1.33,-0.74,0.20,-0.32,2.28,0.00
23.58,-0.93,-0.68,0.13,-2.98,-1.33,-0.74,0.20,-0.32,2.28,0.00
23.58,-0.93,-0.68,0.13,-0.35,-2.94,-1.44,0.20,-0.32,2.28,0.00
23.619,-0.93,-0.68,0.13,1.69,-4.37,-1.50,0.20,-0.32,2.28,0.00
23.62,-0.70,-0.74,0.18,1.69,-4.37,-1.50,0.20,-0.32,2.28,0.00
23.659,-0.70,-0.74,0.18,1.69,-4.37,-1.50,-0.04,-0.19,2.10,0.00
23.66,-0.70,-0.74,0.18,2.67,-5.00,-0.91,-0.04,-0.19,2.10,0.00
23.698,-0.70,-0.74,0.18,2.67,-5.00,-0.91,-0.18,0.06,1.48,0.00
23.698,-0.65,-0.79,0.14,2.67,-5.00,-0.91,-0.18,0.06,1.48,0.00
23.699,-0.65,-0.79,0.14,3.35,-5.09,-0.89,-0.18,0.06,1.48,0.00
23.738,-0.65,-0.79,0.14,2.93,-6.73,-1.59,-0.18,0.06,1.48,0.00
23.777,-0.65,-0.79,0.14,2.93,-6.73,-1.59,-0.48,-0.08,0.98,0.00
23.778,-0.35,-0.78,0.16,2.93,-6.73,-1.59,-0.48,-0.08,0.98,0.00
23.778,-0.35,-0.78,0.16,5.64,-6.67,-1.58,-0.48,-0.08,0.98,0.00
23.817,-0.21,-0.60,0.22,5.64,-6.67,-1.58,-0.48,-0.08,0.98,0.00
23.817,-0.21,-0.60,0.22,7.30,-4.78,0.60,-0.48,-0.08,0.98,0.00
23.856,-0.21,-0.60,0.22,7.30,-4.78,0.60,-0.26,0.78,-0.08,0.00
23.856,-0.21,-0.60,0.22,7.32,-4.01,0.13,-0.26,0.78,-0.08,0.00
23.896,-0.21,-0.60,0.22,7.32,-4.01,0.13,0.12,0.86,-1.26,0.00
23.897,-0.21,-0.60,0.22,5.47,-4.93,-1.88,0.12,0.86,-1.26,0.00
23.897,-0.48,-0.81,-0.00,5.47,-4.93,-1.88,0.12,0.86,-1.26,0.00
23.936,-0.48,-0.81,-0.00,3.62,-5.08,-1.29,0.12,0.86,-1.26,0.00
23.975,-0.48,-0.81,-0.00,3.62,-5.08,-1.29,-0.45,0.35,-1.81,0.00
23.976,-0.76,-0.81,-0.02,3.62,-5.08,-1.29,-0.45,0.35,-1.81,0.00
23.976,-0.76,-0.81,-0.02,1.39,-4.21,-1.64,-0.45,0.35,-1.81,0.00
24.014,-0.76,-0.81,-0.02,0.65,-3.01,-0.87,-0.45,0.35,-1.81,0.00
24.054,-0.76,-0.81,-0.02,0.29,-2.45,0.53,-0.45,0.35,-1.81,0.00
24.054,-0.79,-0.79,0.17,0.29,-2.45,0.53,-0.45,0.35,-1.81,0.00
24.054,-0.79,-0.79,0.17,0.29,-2.45,0.53,-1.36,-0.47,-1.73,0.00
24.094,-0.79,-0.79,0.17,0.29,-2.45,0.53,-1.60,-1.01,-1.87,0.00
24.094,-0.89,-0.70,0.28,0.29,-2.45,0.53,-1.60,-1.01,-1.87,0.00
24.095,-0.89,-0.70,0.28,-0.08,-1.43,2.22,-1.60,-1.01,-1.87,0.00
24.133,-0.89,-0.70,0.28,-2.14,-0.05,1.43,-1.60,-1.01,-1.87,0.00
24.172,-1.01,-0.57,0.26,-2.14,-0.05,1.43,-1.60,-1.01,-1.87,0.00
24.173,-1.01,-0.57,0.26,-3.08,1.54,1.20,-1.60,-1.01,-1.87,0.00
24.173,-1.01,-0.57,0.26,-3.08,1.54,1.20,-1.38,-1.20,-1.86,0.00
24.212,-1.01,-0.57,0.26,-4.09,1.89,2.08,-1.38,-1.20,-1.86,0.00
24.255,-1.01,-0.57,0.26,-4.09,1.89,2.08,-1.15,-0.76,-1.54,0.00
24.256,-1.15,-0.54,0.34,-4.09,1.89,2.08,-1.15,-0.76,-1.54,0.00
24.256,-1.15,-0.54,0.34,-5.40,2.52,2.49,-1.15,-0.76,-1.54,0.00
24.291,-1.15,-0.54,0.34,-5.40,2.52,2.49,-0.68,-0.11,-1.17,0.00
24.291,-1.15,-0.54,0.34,-6.32,2.90,2.08,-0.68,-0.11,-1.17,0.00
24.292,-1.28,-0.50,0.30,-6.32,2.90,2.08,-0.68,-0.11,-1.17,0.00
24.331,-1.28,-0.50,0.30,-7.36,3.31,2.37,-0.68,-0.11,-1.17,0.00
24.37,-1.23,-0.52,0.41,-7.36,3.31,2.37,-0.68,-0.11,-1.17,0.00
24.371,-1.23,-0.52,0.41,-7.36,3.31,2.37,-0.54,-0.38,-0.46,0.00
24.371,-1.23,-0.52,0.41,-7.14,3.68,3.00,-0.54,-0.38,-0.46,0.00
24.41,-1.23,-0.52,0.41,-5.96,2.23,3.93,-0.54,-0.38,-0.46,0.00
24.449,-1.23,-0.52,0.41,-5.96,2.23,3.93,0.14,-0.09,-0.02,0.00
24.45,-1.34,-0.47,0.56,-5.96,2.23,3.93,0.14,-0.09,-0.02,0.00
24.45,-1.34,-0.47,0.56,-7.30,3.41,4.80,0.14,-0.09,-0.02,0.00
24.489,-1.33,-0.57,0.33,-7.30,3.41,4.80,0.14,-0.09,-0.02,0.00
24.49,-1.33,-0.57,0.33,-8.31,3.53,3.16,0.14,-0.09,-0.02,0.00
24.528,-1.33,-0.57,0.33,-8.31,3.53,3.16,1.36,0.66,0.88,0.00
24.529,-1.33,-0.57,0.33,-5.98,1.33,1.36,1.36,0.66,0.88,0.00
24.568,-1.33,-0.57,0.33,-5.98,1.33,1.36,1.50,0.52,2.00,0.00
24.568,-1.13,-0.87,0.31,-5.98,1.33,1.36,1.50,0.52,2.00,0.00
24.568,-1.13,-0.87,0.31,-3.63,-1.09,0.73,1.50,0.52,2.00,0.00
24.608,-1.13,-0.87,0.31,-3.11,-3.46,1.54,1.50,0.52,2.00,0.00
24.648,-1.13,-0.87,0.31,-3.11,-3.46,1.54,1.30,0.85,2.36,0.00
24.649,-1.22,-0.97,0.34,-3.11,-3.46,1.54,1.30,0.85,2.36,0.00
24.649,-1.22,-0.97,0.34,-3.56,-4.53,1.57,1.30,0.85,2.36,0.00
24.687,-0.76,-0.95,0.30,-3.56,-4.53,1.57,1.30,0.85,2.36,0.00
24.687,-0.76,-0.95,0.30,-1.08,-5.48,0.44,1.30,0.85,2.36,0.00
24.727,-0.76,-0.95,0.30,-1.08,-5.48,0.44,0.94,-0.04,3.01,0.00
24.728,-0.76,-0.95,0.30,2.53,-6.47,0.59,0.94,-0.04,3.01,0.00
24.766,-0.76,-0.95,0.30,2.53,-6.47,0.59,1.00,-0.50,2.57,0.00
24.766,-0.76,-0.95,0.30,4.69,-6.62,0.92,1.00,-0.50,2.57,0.00
24.767,-0.48,-0.81,0.32,4.69,-6.62,0.92,1.00,-0.50,2.57,0.00
24.806,-0.48,-0.81,0.32,5.19,-6.21,-0.12,1.00,-0.50,2.57,0.00
24.845,-0.48,-0.81,0.32,5.19,-6.21,-0.12,1.27,0.21,1.63,0.00
24.845,-0.57,-0.62,0.15,5.19,-6.21,-0.12,1.27,0.21,1.63,0.00
24.846,-0.57,-0.62,0.15,4.19,-5.56,-0.86,1.27,0.21,1.63,0.00
24.885,-0.57,-0.62,0.15,4.03,-5.71,-2.42,1.27,0.21,1.63,0.00
24.885,-0.45,-0.61,-0.04,4.03,-5.71,-2.42,1.27,0.21,1.63,0.00
24.925,-0.45,-0.61,-0.04,4.03,-5.71,-2.42,0.79,0.15,1.31,0.00
24.926,-0.45,-0.61,-0.04,5.29,-6.25,-3.09,0.79,0.15,1.31,0.00
24.963,-0.45,-0.61,-0.04,5.29,-6.25,-3.09,-0.15,-0.54,0.55,0.00
24.964,-0.37,-0.63,0.11,5.29,-6.25,-3.09,-0.15,-0.54,0.55,0.00
24.964,-0.37,-0.63,0.11,5.62,-6.40,-1.82,-0.15,-0.54,0.55,0.00
25.005,-0.37,-0.63,0.11,5.66,-6.25,-1.89,-0.15,-0.54,0.55,0.00
25.043,-0.37,-0.63,0.11,5.66,-6.25,-1.89,-0.51,-0.29,-0.57,0.00
25.044,-0.37,-0.63,0.11,3.98,-7.37,-1.93,-0.51,-0.29,-0.57,0.00
25.045,-0.54,-0.80,0.10,3.98,-7.37,-1.93,-0.51,-0.29,-0.57,0.00
25.083,-0.62,-0.56,0.13,3.98,-7.37,-1.93,-0.51,-0.29,-0.57,0.00
25.083,-0.62,-0.56,0.13,3.45,-6.36,-2.11,-0.51,-0.29,-0.57,0.00
25.122,-0.62,-0.56,0.13,3.45,-6.36,-2.11,-0.96,0.29,-1.81,0.00
25.123,-0.62,-0.56,0.13,2.82,-3.18,-1.27,-0.96,0.29,-1.81,0.00
25.161,-0.62,-0.56,0.13,2.82,-3.18,-1.27,-1.03,0.47,-2.24,0.00
25.162,-1.07,-0.55,0.21,2.82,-3.18,-1.27,-1.03,0.47,-2.24,0.00
25.162,-1.07,-0.55,0.21,-1.98,-1.63,0.39,-1.03,0.47,-2.24,0.00
25.201,-1.07,-0.55,0.21,-1.84,-1.87,-0.27,-1.03,0.47,-2.24,0.00
25.241,-1.07,-0.55,0.21,-1.84,-1.87,-0.27,-0.82,0.42,-1.62,0.00
25.242,-0.92,-0.74,0.25,-1.84,-1.87,-0.27,-0.82,0.42,-1.62,0.00
25.242,-0.92,-0.74,0.25,-0.35,-2.67,0.22,-0.82,0.42,-1.62,0.00
25.28,-0.92,-0.74,0.25,-1.51,-2.32,1.66,-0.82,0.42,-1.62,0.00
25.32,-0.92,-0.74,0.25,-1.51,-2.32,1.66,-0.69,0.18,-1.79,0.00
25.321,-0.92,-0.74,0.25,-3.32,-1.25,-0.51,-0.69,0.18,-1.79,0.00
25.322,-1.12,-0.71,0.09,-3.32,-1.25,-0.51,-0.69,0.18,-1.79,0.00
25.364,-1.12,-0.71,0.09,-3.32,-1.25,-0.51,-1.25,-0.31,-1.54,0.00
25.365,-0.95,-0.53,0.26,-3.32,-1.25,-0.51,-1.25,-0.31,-1.54,0.00
25.365,-0.95,-0.53,0.26,-2.22,0.34,-0.62,-1.25,-0.31,-1.54,0.00
25.399,-0.95,-0.53,0.26,-2.19,1.83,2.30,-1.25,-0.31,-1.54,0.00
25.438,-0.95,-0.53,0.26,-2.19,1.83,2.30,-1.09,-0.50,-1.22,0.00
25.439,-0.95,-0.42,0.35,-2.19,1.83,2.30,-1.09,-0.50,-1.22,0.00
25.439,-0.95,-0.42,0.35,-2.58,2.75,3.13,-1.09,-0.50,-1.22,0.00
25.478,-0.95,-0.42,0.35,-2.65,3.27,1.50,-1.09,-0.50,-1.22,0.00
25.518,-0.98,-0.46,0.16,-2.65,3.27,1.50,-1.09,-0.50,-1.22,0.00
25.518,-0.98,-0.46,0.16,-2.65,3.27,1.50,-0.59,-0.50,-0.86,0.00
25.519,-0.98,-0.46,0.16,-3.19,2.88,0.68,-0.59,-0.50,-0.86,0.00
25.558,-1.08,-0.49,0.24,-3.19,2.88,0.68,-0.59,-0.50,-0.86,0.00
25.559,-1.08,-0.49,0.24,-4.07,2.88,0.91,-0.59,-0.50,-0.86,0.00
25.596,-1.08,-0.49,0.24,-4.07,2.88,0.91,-0.64,-0.22,-0.64,0.00
25.596,-1.08,-0.49,0.24,-4.54,2.80,1.89,-0.64,-0.22,-0.64,0.00
25.636,-1.08,-0.49,0.24,-4.54,2.80,1.89,-0.48,-0.16,-0.29,0.00
25.637,-1.15,-0.60,0.45,-4.54,2.80,1.89,-0.48,-0.16,-0.29,0.00
25.637,-1.15,-0.60,0.45,-5.00,2.67,3.31,-0.48,-0.16,-0.29,0.00
25.675,-1.15,-0.60,0.45,-5.19,0.56,4.26,-0.48,-0.16,-0.29,0.00
25.715,-1.35,-0.63,0.57,-5.19,0.56,4.26,-0.48,-0.16,-0.29,0.00
25.716,-1.35,-0.63,0.57,-5.19,0.56,4.26,0.50,0.70,-0.06,0.00
25.716,-1.35,-0.63,0.57,-6.69,1.05,5.33,0.50,0.70,-0.06,0.00
25.754,-1.31,-0.46,0.08,-6.69,1.05,5.33,0.50,0.70,-0.06,0.00
25.755,-1.31,-0.46,0.08,-7.69,2.88,1.86,0.50,0.70,-0.06,0.00
25.794,-1.31,-0.46,0.08,-5.16,2.25,-0.92,0.50,0.70,-0.06,0.00
25.794,-1.31,-0.46,0.08,-5.16,2.25,-0.92,1.60,1.05,0.76,0.00
25.833,-1.31,-0.46,0.08,-5.16,2.25,-0.92,1.03,-0.01,2.15,0.00
25.834,-0.74,-0.81,0.39,-5.16,2.25,-0.92,1.03,-0.01,2.15,0.00
25.835,-0.74,-0.81,0.39,-0.82,-1.28,1.22,1.03,-0.01,2.15,0.00
25.873,-0.74,-0.81,0.39,2.46,-3.12,3.06,1.03,-0.01,2.15,0.00
25.913,-0.74,-0.81,0.39,2.46,-3.12,3.06,1.76,1.24,1.38,0.00
25.914,-0.79,-0.76,0.25,2.46,-3.12,3.06,1.76,1.24,1.38,0.00
25.914,-0.79,-0.76,0.25,1.89,-2.74,1.43,1.76,1.24,1.38,0.00
25.952,-1.06,-0.69,0.02,1.89,-2.74,1.43,1.76,1.24,1.38,0.00
25.952,-1.06,-0.69,0.02,-3.00,-1.98,-0.96,1.76,1.24,1.38,0.00
25.991,-1.06,-0.69,0.02,-3.00,-1.98,-0.96,1.38,1.23,1.35,0.00
25.992,-1.06,-0.69,0.02,-0.90,-2.96,-1.12,1.38,1.23,1.35,0.00
26.031,-1.06,-0.69,0.02,-0.90,-2.96,-1.12,0.22,-0.28,2.04,0.00
26.032,-0.71,-0.68,0.32,-0.90,-2.96,-1.12,0.22,-0.28,2.04,0.00
26.032,-0.71,-0.68,0.32,1.70,-3.99,1.41,0.22,-0.28,2.04,0.00
26.071,-0.71,-0.68,0.32,3.25,-3.86,1.61,0.22,-0.28,2.04,0.00
26.111,-0.71,-0.68,0.32,3.25,-3.86,1.61,0.51,-0.17,1.67,0.00
26.111,-0.71,-0.52,0.21,3.25,-3.86,1.61,0.51,-0.17,1.67,0.00
26.112,-0.71,-0.52,0.21,2.90,-3.19,0.44,0.51,-0.17,1.67,0.00
26.15,-0.61,-0.61,0.19,2.90,-3.19,0.44,0.51,-0.17,1.67,0.00
26.151,-0.61,-0.61,0.19,2.43,-3.98,-0.21,0.51,-0.17,1.67,0.00
26.189,-0.61,-0.61,0.19,2.43,-3.98,-0.21,0.37,-0.04,1.56,0.00
26.19,-0.61,-0.61,0.19,3.81,-5.23,-0.08,0.37,-0.04,1.56,0.00
26.229,-0.61,-0.61,0.19,3.81,-5.23,-0.08,0.03,-1.00,1.01,0.00
26.23,-0.72,-0.49,0.26,3.81,-5.23,-0.08,0.03,-1.00,1.01,0.00
26.23,-0.72,-0.49,0.26,3.92,-4.88,-0.45,0.03,-1.00,1.01,0.00
26.268,-0.72,-0.49,0.26,1.64,-4.07,0.02,0.03,-1.00,1.01,0.00
26.308,-0.72,-0.49,0.26,1.64,-4.07,0.02,-0.11,-1.96,0.64,0.00
26.309,-0.72,-0.49,0.26,2.22,-3.20,0.42,-0.11,-1.96,0.64,0.00
26.309,-0.71,-0.37,0.40,2.22,-3.20,0.42,-0.11,-1.96,0.64,0.00
26.348,-0.71,-0.37,0.40,1.75,-3.95,-1.03,-0.11,-1.96,0.64,0.00
26.387,-0.71,-0.37,0.40,0.83,-2.18,-0.55,-0.11,-1.96,0.64,0.00
26.387,-0.71,-0.37,0.40,0.83,-2.18,-0.55,0.21,-1.59,-0.01,0.00
26.388,-0.79,-0.25,0.43,0.83,-2.18,-0.55,0.21,-1.59,-0.01,0.00
26.427,-0.79,-0.25,0.43,0.56,0.77,0.62,0.21,-1.59,-0.01,0.00
26.428,-0.79,-0.25,0.43,0.56,0.77,0.62,0.34,-0.94,-0.67,0.00
26.428,-0.87,0.10,0.54,0.56,0.77,0.62,0.34,-0.94,-0.67,0.00
26.466,-0.87,0.10,0.54,-0.70,1.90,-0.30,0.34,-0.94,-0.67,0.00
26.506,-0.87,0.10,0.54,-0.70,1.90,-0.30,0.54,-1.02,-0.40,0.00
26.507,-1.00,-0.12,0.51,-0.70,1.90,-0.30,0.54,-1.02,-0.40,0.00
26.508,-1.00,-0.12,0.51,-2.28,-0.20,-0.43,0.54,-1.02,-0.40,0.00
26.545,-1.00,-0.12,0.51,-1.34,-1.32,-1.60,0.54,-1.02,-0.40,0.00
26.584,-1.00,-0.12,0.51,-1.34,-1.32,-1.60,0.29,-0.99,-0.14,0.00
26.585,-0.74,-0.14,0.79,-1.34,-1.32,-1.60,0.29,-0.99,-0.14,0.00
26.585,-0.74,-0.14,0.79,0.32,-0.90,1.57,0.29,-0.99,-0.14,0.00
26.624,-0.74,-0.14,0.79,-0.44,-0.41,-0.26,0.29,-0.99,-0.14,0.00
26.625,-0.66,0.02,0.77,-0.44,-0.41,-0.26,0.29,-0.99,-0.14,0.00
26.665,-0.66,0.02,0.77,-0.44,-0.41,-0.26,0.27,-0.78,-0.39,0.00
26.666,-0.66,0.02,0.77,1.16,1.31,1.18,0.27,-0.78,-0.39,0.00
26.704,-0.66,0.02,0.77,0.43,0.78,1.30,0.27,-0.78,-0.39,0.00
26.704,-0.52,0.04,0.74,0.43,0.78,1.30,0.27,-0.78,-0.39,0.00
26.704,-0.52,0.04,0.74,0.43,0.78,1.30,0.35,-0.73,-0.37,0.00
26.743,-0.52,0.04,0.74,3.31,1.18,-1.17,0.35,-0.73,-0.37,0.00
26.783,-0.40,-0.04,0.68,3.31,1.18,-1.17,0.35,-0.73,-0.37,0.00
26.783,-0.40,-0.04,0.68,3.31,1.18,-1.17,0.65,-0.47,-0.78,0.00
26.783,-0.40,-0.04,0.68,2.75,0.36,-0.69,0.65,-0.47,-0.78,0.00
26.822,-0.46,-0.15,0.78,2.75,0.36,-0.69,0.65,-0.47,-0.78,0.00
26.823,-0.46,-0.15,0.78,1.76,-0.39,0.70,0.65,-0.47,-0.78,0.00
26.861,-0.46,-0.15,0.78,1.76,-0.39,0.70,0.91,0.17,-1.30,0.00
26.861,-0.46,-0.15,0.78,2.14,-0.62,0.38,0.91,0.17,-1.30,0.00
26.901,-0.46,-0.15,0.78,2.14,-0.62,0.38,1.07,0.36,-1.81,0.00
26.902,-0.63,-0.22,0.87,2.14,-0.62,0.38,1.07,0.36,-1.81,0.00
26.902,-0.63,-0.22,0.87,0.55,-0.75,1.29,1.07,0.36,-1.81,0.00
26.941,-0.63,-0.22,0.87,0.39,-1.15,1.56,1.07,0.36,-1.81,0.00
26.98,-0.59,-0.37,0.84,0.39,-1.15,1.56,1.07,0.36,-1.81,0.00
26.98,-0.59,-0.37,0.84,0.39,-1.15,1.56,1.31,0.45,-1.91,0.00
26.981,-0.59,-0.37,0.84,0.65,-2.23,1.22,1.31,0.45,-1.91,0.00
27.02,-0.49,-0.47,0.86,0.65,-2.23,1.22,1.31,0.45,-1.91,0.00
27.02,-0.49,-0.47,0.86,1.71,-1.93,0.95,1.31,0.45,-1.91,0.00
27.059,-0.49,-0.47,0.86,1.71,-1.93,0.95,1.53,0.48,-2.21,0.00
27.059,-0.49,-0.47,0.86,1.76,-2.91,1.52,1.53,0.48,-2.21,0.00
27.099,-0.49,-0.47,0.86,1.76,-2.91,1.52,1.96,0.73,-2.59,0.00
27.1,-0.56,-0.47,0.73,1.76,-2.91,1.52,1.96,0.73,-2.59,0.00
27.1,-0.56,-0.47,0.73,1.36,-2.76,0.95,1.96,0.73,-2.59,0.00
27.138,-0.56,-0.47,0.73,0.90,-2.41,-0.39,1.96,0.73,-2.59,0.00
27.178,-0.56,-0.47,0.73,0.90,-2.41,-0.39,1.99,0.80,-2.63,0.00
27.178,-0.57,-0.47,0.68,0.90,-2.41,-0.39,1.99,0.80,-2.63,0.00
27.178,-0.57,-0.47,0.68,0.89,-2.40,-0.13,1.99,0.80,-2.63,0.00
27.217,-0.61,-0.41,0.90,0.89,-2.40,-0.13,1.99,0.80,-2.63,0.00
27.218,-0.61,-0.41,0.90,1.02,-1.53,-0.59,1.99,0.80,-2.63,0.00
27.257,-0.61,-0.41,0.90,1.02,-1.53,-0.59,1.67,0.97,-2.60,0.00
27.258,-0.61,-0.41,0.90,0.59,-1.15,2.27,1.67,0.97,-2.60,0.00
27.297,-0.61,-0.41,0.90,-0.20,-0.90,1.81,1.67,0.97,-2.60,0.00
27.297,-0.61,-0.41,0.90,-0.20,-0.90,1.81,2.07,1.17,-2.28,0.00
27.298,-0.73,-0.38,0.75,-0.20,-0.90,1.81,2.07,1.17,-2.28,0.00
27.336,-0.73,-0.38,0.75,-0.70,-0.81,-0.09,2.07,1.17,-2.28,0.00
27.378,-0.73,-0.38,0.75,-0.70,-0.81,-0.09,1.73,0.85,-1.73,0.00
27.378,-0.70,-0.36,0.92,-0.70,-0.81,-0.09,1.73,0.85,-1.73,0.00
27.378,-0.70,-0.36,0.92,-0.13,-0.86,2.24,1.73,0.85,-1.73,0.00
27.416,-0.75,-0.24,0.88,-0.13,-0.86,2.24,1.73,0.85,-1.73,0.00
27.416,-0.75,-0.24,0.88,-0.14,-0.36,2.61,1.73,0.85,-1.73,0.00
27.454,-0.75,-0.24,0.88,-0.14,-0.36,2.61,1.74,0.93,-1.49,0.00
27.455,-0.75,-0.24,0.88,-0.53,0.39,1.92,1.74,0.93,-1.49,0.00
27.494,-0.75,-0.24,0.88,-0.53,0.39,1.92,1.75,0.64,-0.93,0.00
27.494,-0.68,-0.28,0.77,-0.53,0.39,1.92,1.75,0.64,-0.93,0.00
27.494,-0.68,-0.28,0.77,0.02,0.14,1.06,1.75,0.64,-0.93,0.00
27.534,-0.68,-0.28,0.77,0.45,-0.65,0.78,1.75,0.64,-0.93,0.00
27.573,-0.68,-0.28,0.77,0.45,-0.65,0.78,1.59,0.55,-0.57,0.00
27.574,-0.60,-0.32,0.71,0.45,-0.65,0.78,1.59,0.55,-0.57,0.00
27.574,-0.60,-0.32,0.71,1.15,-1.12,0.55,1.59,0.55,-0.57,0.00
27.612,-0.60,-0.32,0.71,1.43,-1.36,-0.21,1.59,0.55,-0.57,0.00
27.652,-0.59,-0.38,0.61,1.43,-1.36,-0.21,1.59,0.55,-0.57,0.00
27.653,-0.59,-0.38,0.61,1.58,-2.07,-0.44,1.59,0.55,-0.57,0.00
27.653,-0.59,-0.38,0.61,1.58,-2.07,-0.44,1.39,0.76,-0.49,0.00
27.692,-0.59,-0.38,0.61,1.58,-2.07,-0.44,1.00,1.29,-0.62,0.00
27.693,-0.53,-0.44,0.54,1.58,-2.07,-0.44,1.00,1.29,-0.62,0.00
27.693,-0.53,-0.44,0.54,1.96,-3.10,-0.88,1.00,1.29,-0.62,0.00
27.732,-0.53,-0.44,0.54,2.87,-2.43,-0.24,1.00,1.29,-0.62,0.00
27.771,-0.53,-0.44,0.54,2.87,-2.43,-0.24,1.10,1.58,-0.91,0.00
27.771,-0.63,-0.51,0.21,2.87,-2.43,-0.24,1.10,1.58,-0.91,0.00
27.772,-0.63,-0.51,0.21,1.63,-2.89,-2.31,1.10,1.58,-0.91,0.00
27.81,-0.63,-0.51,0.21,2.61,-3.39,-3.88,1.10,1.58,-0.91,0.00
27.85,-0.63,-0.51,0.21,2.61,-3.39,-3.88,0.51,0.93,-0.96,0.00
27.851,-0.58,-0.61,0.31,2.61,-3.39,-3.88,0.51,0.93,-0.96,0.00
27.852,-0.58,-0.61,0.31,2.77,-3.49,-1.46,0.51,0.93,-0.96,0.00
27.889,-0.70,-0.76,0.00,2.77,-3.49,-1.46,0.51,0.93,-0.96,0.00
27.89,-0.70,-0.76,0.00,1.14,-3.74,-1.86,0.51,0.93,-0.96,0.00
27.929,-0.70,-0.76,0.00,1.14,-3.74,-1.86,0.47,1.45,-1.24,0.00
27.93,-0.70,-0.76,0.00,1.59,-4.33,-4.24,0.47,1.45,-1.24,0.00
27.97,-0.70,-0.76,0.00,1.59,-4.33,-4.24,-0.50,0.78,-1.81,0.00
27.971,-0.86,-0.77,0.33,1.59,-4.33,-4.24,-0.50,0.78,-1.81,0.00
27.971,-0.86,-0.77,0.33,0.85,-3.65,-0.91,-0.50,0.78,-1.81,0.00
28.008,-0.86,-0.77,0.33,-1.98,-2.41,1.10,-0.50,0.78,-1.81,0.00
28.047,-0.86,-0.77,0.33,-1.98,-2.41,1.10,-0.09,0.46,-1.94,0.00
28.048,-0.94,-0.63,0.17,-1.98,-2.41,1.10,-0.09,0.46,-1.94,0.00
28.048,-0.94,-0.63,0.17,-2.02,-0.87,-1.23,-0.09,0.46,-1.94,0.00
28.087,-0.84,-0.63,0.27,-2.02,-0.87,-1.23,-0.09,0.46,-1.94,0.00
28.088,-0.84,-0.63,0.27,-0.13,-0.00,-2.04,-0.09,0.46,-1.94,0.00
28.127,-0.84,-0.63,0.27,-0.13,-0.00,-2.04,-0.25,0.11,-1.74,0.00
28.128,-0.84,-0.63,0.27,-1.60,0.30,0.22,-0.25,0.11,-1.74,0.00
28.166,-0.84,-0.63,0.27,-1.60,0.30,0.22,0.07,0.42,-1.85,0.00
28.167,-1.01,-0.52,0.15,-1.60,0.30,0.22,0.07,0.42,-1.85,0.00
28.167,-1.01,-0.52,0.15,-3.19,1.50,-0.59,0.07,0.42,-1.85,0.00
28.206,-1.01,-0.52,0.15,-4.09,2.50,-1.59,0.07,0.42,-1.85,0.00
28.246,-1.01,-0.52,0.15,-4.09,2.50,-1.59,-0.02,0.53,-1.36,0.00
28.246,-1.15,-0.47,0.17,-4.09,2.50,-1.59,-0.02,0.53,-1.36,0.00
28.247,-1.15,-0.47,0.17,-5.40,2.87,-0.68,-0.02,0.53,-1.36,0.00
28.285,-1.15,-0.47,0.17,-5.29,2.85,-0.78,-0.02,0.53,-1.36,0.00
28.285,-1.07,-0.46,0.23,-5.29,2.85,-0.78,-0.02,0.53,-1.36,0.00
28.325,-1.07,-0.46,0.23,-5.29,2.85,-0.78,-0.18,0.28,-0.74,0.00
28.326,-1.07,-0.46,0.23,-4.72,3.22,0.16,-0.18,0.28,-0.74,0.00
28.368,-1.07,-0.46,0.23,-4.72,3.22,0.16,-0.01,0.37,-0.42,0.00
28.369,-1.05,-0.48,0.35,-4.72,3.22,0.16,-0.01,0.37,-0.42,0.00
28.37,-1.05,-0.48,0.35,-4.64,3.17,1.06,-0.01,0.37,-0.42,0.00
28.404,-1.05,-0.48,0.35,-4.51,2.87,1.66,-0.01,0.37,-0.42,0.00
28.443,-1.05,-0.48,0.35,-5.34,2.03,1.65,-0.01,0.37,-0.42,0.00
28.444,-1.15,-0.57,0.41,-5.34,2.03,1.65,-0.01,0.37,-0.42,0.00
28.445,-1.15,-0.57,0.41,-5.34,2.03,1.65,0.36,1.01,-0.15,0.00
28.483,-1.15,-0.57,0.41,-5.05,1.89,3.17,0.36,1.01,-0.15,0.00
28.483,-1.16,-0.49,0.51,-5.05,1.89,3.17,0.36,1.01,-0.15,0.00
28.523,-1.16,-0.49,0.51,-5.05,1.89,3.17,0.76,1.09,0.21,0.00
28.524,-1.16,-0.49,0.51,-4.94,2.57,2.97,0.76,1.09,0.21,0.00
28.562,-1.16,-0.49,0.51,-4.94,2.57,2.97,1.19,1.04,1.16,0.00
28.563,-1.15,-0.57,0.40,-4.94,2.57,2.97,1.19,1.04,1.16,0.00
28.563,-1.15,-0.57,0.40,-5.14,2.75,1.99,1.19,1.04,1.16,0.00
28.601,-1.15,-0.57,0.40,-3.14,-0.24,1.67,1.19,1.04,1.16,0.00
28.641,-1.15,-0.57,0.40,-3.14,-0.24,1.67,0.99,0.66,2.06,0.00
28.642,-1.15,-0.57,0.40,-1.95,-2.57,2.79,0.99,0.66,2.06,0.00
28.642,-1.10,-0.83,0.56,-1.95,-2.57,2.79,0.99,0.66,2.06,0.00
28.68,-1.10,-0.83,0.56,-3.36,-3.74,4.08,0.99,0.66,2.06,0.00
28.721,-1.10,-0.83,0.56,-3.36,-3.74,4.08,1.15,0.57,2.29,0.00
28.722,-1.31,-0.86,0.51,-3.36,-3.74,4.08,1.15,0.57,2.29,0.00
28.722,-1.31,-0.86,0.51,-3.59,-4.65,2.55,1.15,0.57,2.29,0.00
28.76,-1.31,-0.86,0.51,-3.59,-4.65,2.55,1.05,0.09,2.87,0.00
28.761,-1.31,-0.86,0.51,-2.63,-5.59,2.19,1.05,0.09,2.87,0.00
28.761,-1.17,-0.84,0.40,-2.63,-5.59,2.19,1.05,0.09,2.87,0.00
28.799,-1.17,-0.84,0.40,-1.25,-6.73,0.81,1.05,0.09,2.87,0.00
28.84,-1.17,-0.84,0.40,-1.25,-6.73,0.81,0.75,-0.39,3.06,0.00
28.84,-0.86,-0.69,0.39,-1.25,-6.73,0.81,0.75,-0.39,3.06,0.00
28.841,-0.86,-0.69,0.39,1.36,-6.78,1.16,0.75,-0.39,3.06,0.00
28.878,-0.86,-0.69,0.39,1.55,-7.10,0.20,0.75,-0.39,3.06,0.00
28.918,-0.58,-0.50,0.29,1.55,-7.10,0.20,0.75,-0.39,3.06,0.00
28.918,-0.58,-0.50,0.29,1.55,-7.10,0.20,0.73,-0.38,2.78,0.00
28.919,-0.58,-0.50,0.29,3.85,-6.71,-0.41,0.73,-0.38,2.78,0.00
28.957,-0.44,-0.42,0.23,3.85,-6.71,-0.41,0.73,-0.38,2.78,0.00
28.958,-0.44,-0.42,0.23,4.17,-6.80,-0.37,0.73,-0.38,2.78,0.00
28.997,-0.44,-0.42,0.23,4.17,-6.80,-0.37,0.70,-0.22,2.18,0.00
28.997,-0.44,-0.42,0.23,4.93,-7.24,-1.25,0.70,-0.22,2.18,0.00
29.036,-0.26,-0.28,0.06,4.93,-7.24,-1.25,0.70,-0.22,2.18,0.00
29.037,-0.26,-0.28,0.06,4.93,-7.24,-1.25,0.65,-0.69,1.27,0.00
29.037,-0.26,-0.28,0.06,6.18,-6.70,-2.41,0.65,-0.69,1.27,0.00
29.076,-0.26,-0.28,0.06,5.64,-5.64,-3.52,0.65,-0.69,1.27,0.00
29.115,-0.48,-0.16,0.16,5.64,-5.64,-3.52,0.65,-0.69,1.27,0.00
29.115,-0.48,-0.16,0.16,3.78,-4.77,-2.25,0.65,-0.69,1.27,0.00
29.116,-0.48,-0.16,0.16,3.78,-4.77,-2.25,0.07,-0.88,0.27,0.00
29.155,-0.46,-0.20,0.27,3.78,-4.77,-2.25,0.07,-0.88,0.27,0.00
29.155,-0.46,-0.20,0.27,0.99,-6.45,-4.06,0.07,-0.88,0.27,0.00
29.194,-0.46,-0.20,0.27,0.99,-6.45,-4.06,-0.80,-1.90,-0.22,0.00
29.195,-0.46,-0.20,0.27,3.55,-4.27,-2.07,-0.80,-1.90,-0.22,0.00
29.234,-0.46,-0.20,0.27,3.55,-4.27,-2.07,-1.45,-0.38,-1.14,0.00
29.235,-0.46,-0.20,0.27,1.43,-3.58,0.81,-1.45,-0.38,-1.14,0.00
29.236,-0.77,-0.24,0.60,1.43,-3.58,0.81,-1.45,-0.38,-1.14,0.00
29.275,-0.77,-0.24,0.60,-1.10,-4.20,0.38,-1.45,-0.38,-1.14,0.00
29.313,-0.66,-0.54,0.08,-1.10,-4.20,0.38,-1.45,-0.38,-1.14,0.00
29.313,-0.66,-0.54,0.08,-1.10,-4.20,0.38,-0.72,0.61,-1.11,0.00
29.314,-0.66,-0.54,0.08,1.57,-5.76,-3.61,-0.72,0.61,-1.11,0.00
29.353,-0.90,-0.81,0.09,1.57,-5.76,-3.61,-0.72,0.61,-1.11,0.00
29.354,-0.90,-0.81,0.09,1.63,-5.85,-6.04,-0.72,0.61,-1.11,0.00
29.392,-0.90,-0.81,0.09,1.63,-5.85,-6.04,-1.98,1.11,-1.73,0.00
29.393,-0.90,-0.81,0.09,-0.81,-6.52,-2.77,-1.98,1.11,-1.73,0.00
29.432,-0.94,-0.87,0.82,-0.81,-6.52,-2.77,-1.98,1.11,-1.73,0.00
29.433,-0.94,-0.87,0.82,-0.81,-6.52,-2.77,-3.09,1.43,-2.19,0.00
29.433,-0.94,-0.87,0.82,-1.50,-5.96,4.64,-3.09,1.43,-2.19,0.00
29.471,-0.94,-0.87,0.82,-0.47,-4.18,5.52,-3.09,1.43,-2.19,0.00
29.511,-1.17,-0.77,0.56,-0.47,-4.18,5.52,-3.09,1.43,-2.19,0.00
29.512,-1.17,-0.77,0.56,-0.47,-4.18,5.52,-1.40,1.59,-2.82,0.00
29.512,-1.17,-0.77,0.56,-3.39,-2.63,3.76,-1.40,1.59,-2.82,0.00
29.55,-1.17,-0.61,0.46,-3.39,-2.63,3.76,-1.40,1.59,-2.82,0.00
29.551,-1.17,-0.61,0.46,-4.71,-0.86,2.65,-1.40,1.59,-2.82,0.00
29.59,-1.17,-0.61,0.46,-4.71,-0.86,2.65,-0.76,0.19,-2.66,0.00
29.59,-1.17,-0.61,0.46,-4.64,0.88,2.76,-0.76,0.19,-2.66,0.00
29.63,-1.17,-0.61,0.46,-7.25,1.35,2.03,-0.76,0.19,-2.66,0.00
29.631,-1.30,-0.56,0.41,-7.25,1.35,2.03,-0.76,0.19,-2.66,0.00
29.631,-1.30,-0.56,0.41,-7.25,1.35,2.03,-0.95,-0.22,-2.23,0.00
29.672,-1.30,-0.56,0.41,-6.41,2.60,2.90,-0.95,-0.22,-2.23,0.00
29.708,-1.30,-0.56,0.41,-6.41,2.60,2.90,-0.97,-0.27,-1.74,0.00
29.709,-1.39,-0.41,0.55,-6.41,2.60,2.90,-0.97,-0.27,-1.74,0.00
29.709,-1.39,-0.41,0.55,-8.21,3.77,4.37,-0.97,-0.27,-1.74,0.00
29.748,-1.43,-0.31,0.50,-8.21,3.77,4.37,-0.97,-0.27,-1.74,0.00
29.749,-1.43,-0.31,0.50,-8.48,5.09,3.88,-0.97,-0.27,-1.74,0.00
29.787,-1.43,-0.31,0.50,-8.48,5.09,3.88,-0.32,0.02,-0.99,0.00
29.788,-1.43,-0.31,0.50,-8.90,5.33,3.73,-0.32,0.02,-0.99,0.00
29.827,-1.43,-0.31,0.50,-8.90,5.33,3.73,0.32,-0.20,-0.09,0.00
29.828,-1.43,-0.21,0.36,-8.90,5.33,3.73,0.32,-0.20,-0.09,0.00
29.829,-1.43,-0.21,0.36,-9.65,5.94,3.30,0.32,-0.20,-0.09,0.00
29.866,-1.43,-0.21,0.36,-7.97,5.97,1.41,0.32,-0.20,-0.09,0.00
29.906,-1.24,-0.38,0.47,-7.97,5.97,1.41,0.32,-0.20,-0.09,0.00
29.907,-1.24,-0.38,0.47,-7.97,5.97,1.41,0.67,0.08,1.12,0.00
29.907,-1.24,-0.38,0.47,-6.58,4.62,2.36,0.67,0.08,1.12,0.00
29.945,-1.24,-0.38,0.47,-4.32,1.74,3.48,0.67,0.08,1.12,0.00
29.985,-1.24,-0.38,0.47,-3.91,-0.71,5.33,0.67,0.08,1.12,0.00
29.985,-1.17,-0.73,0.75,-3.91,-0.71,5.33,0.67,0.08,1.12,0.00
29.985,-1.17,-0.73,0.75,-3.91,-0.71,5.33,1.30,1.05,1.73,0.00
30.025,-1.17,-0.73,0.75,-3.91,-0.71,5.33,2.33,1.90,1.90,0.00
30.026,-1.53,-0.96,0.45,-3.91,-0.71,5.33,2.33,1.90,1.90,0.00
30.026,-1.53,-0.96,0.45,-5.35,-3.14,4.12,2.33,1.90,1.90,0.00
30.064,-1.53,-0.96,0.45,-6.60,-5.01,1.62,2.33,1.90,1.90,0.00
30.104,-1.53,-0.96,0.45,-4.32,-6.63,0.64,2.33,1.90,1.90,0.00
30.104,-1.28,-1.03,0.34,-4.32,-6.63,0.64,2.33,1.90,1.90,0.00
30.105,-1.28,-1.03,0.34,-4.32,-6.63,0.64,1.62,1.00,2.98,0.00
30.145,-1.28,-1.03,0.34,-0.75,-7.67,2.17,1.62,1.00,2.98,0.00
30.183,-1.28,-1.03,0.34,-0.75,-7.67,2.17,1.07,0.21,3.37,0.00
30.184,-1.28,-1.03,0.34,0.68,-8.44,1.47,1.07,0.21,3.37,0.00
30.184,-0.94,-0.95,0.35,0.68,-8.44,1.47,1.07,0.21,3.37,0.00
30.222,-0.68,-0.76,0.21,0.68,-8.44,1.47,1.07,0.21,3.37,0.00
30.223,-0.68,-0.76,0.21,2.74,-8.62,0.29,1.07,0.21,3.37,0.00
30.262,-0.68,-0.76,0.21,2.74,-8.62,0.29,0.90,0.22,3.13,0.00
30.262,-0.68,-0.76,0.21,3.51,-8.52,-0.03,0.90,0.22,3.13,0.00
30.302,-0.68,-0.76,0.21,3.51,-8.52,-0.03,0.29,0.01,2.70,0.00
30.302,-0.49,-0.67,0.14,3.51,-8.52,-0.03,0.29,0.01,2.70,0.00
30.302,-0.49,-0.67,0.14,4.19,-9.14,-0.70,0.29,0.01,2.70,0.00
30.342,-0.49,-0.67,0.14,5.52,-9.00,-0.53,0.29,0.01,2.70,0.00
30.38,-0.49,-0.67,0.14,5.52,-9.00,-0.53,-0.25,-0.31,1.92,0.00
30.381,-0.21,-0.55,0.19,5.52,-9.00,-0.53,-0.25,-0.31,1.92,0.00
30.381,-0.21,-0.55,0.19,6.98,-8.71,-0.48,-0.25,-0.31,1.92,0.00
30.421,-0.21,-0.55,0.19,6.79,-8.03,-0.51,-0.25,-0.31,1.92,0.00
30.421,-0.30,-0.56,0.05,6.79,-8.03,-0.51,-0.25,-0.31,1.92,0.00
30.46,-0.30,-0.56,0.05,6.79,-8.03,-0.51,-0.24,-0.66,0.49,0.00
30.46,-0.30,-0.56,0.05,5.66,-8.67,-2.45,-0.24,-0.66,0.49,0.00
30.502,-0.30,-0.56,0.05,5.66,-8.67,-2.45,-0.48,0.13,-0.95,0.00
30.502,-0.46,-0.42,0.08,5.66,-8.67,-2.45,-0.48,0.13,-0.95,0.00
30.503,-0.46,-0.42,0.08,5.94,-6.99,-1.78,-0.48,0.13,-0.95,0.00
30.538,-0.46,-0.42,0.08,3.05,-5.46,-1.69,-0.48,0.13,-0.95,0.00
30.578,-0.46,-0.42,0.08,3.05,-5.46,-1.69,-0.59,0.24,-1.77,0.00
30.579,-0.85,-0.41,-0.01,3.05,-5.46,-1.69,-0.59,0.24,-1.77,0.00
30.579,-0.85,-0.41,-0.01,0.48,-4.62,-2.45,-0.59,0.24,-1.77,0.00
30.618,-1.03,-0.75,0.08,0.48,-4.62,-2.45,-0.59,0.24,-1.77,0.00
30.619,-1.03,-0.75,0.08,1.57,-5.15,-2.58,-0.59,0.24,-1.77,0.00
30.657,-1.03,-0.75,0.08,1.57,-5.15,-2.58,-1.15,0.14,-1.99,0.00
30.658,-1.03,-0.75,0.08,-1.35,-6.48,-1.35,-1.15,0.14,-1.99,0.00
30.697,-1.03,-0.75,0.08,-1.35,-6.48,-1.35,-1.68,0.36,-2.72,0.00
30.697,-1.42,-0.75,0.48,-1.35,-6.48,-1.35,-1.68,0.36,-2.72,0.00
30.698,-1.42,-0.75,0.48,-2.00,-5.29,2.30,-1.68,0.36,-2.72,0.00
30.736,-1.42,-0.75,0.48,-7.18,-3.80,3.11,-1.68,0.36,-2.72,0.00
30.776,-1.16,-0.47,0.28,-7.18,-3.80,3.11,-1.68,0.36,-2.72,0.00
30.776,-1.16,-0.47,0.28,-7.18,-3.80,3.11,-1.10,-0.05,-2.17,0.00
30.777,-1.16,-0.47,0.28,-3.57,-0.74,1.02,-1.10,-0.05,-2.17,0.00
30.816,-1.20,-0.48,0.59,-3.57,-0.74,1.02,-1.10,-0.05,-2.17,0.00
30.816,-1.20,-0.48,0.59,-1.24,0.52,0.91,-1.10,-0.05,-2.17,0.00
30.857,-1.20,-0.48,0.59,-1.24,0.52,0.91,-1.67,-0.62,-1.94,0.00
30.858,-1.20,-0.48,0.59,-4.03,0.75,4.26,-1.67,-0.62,-1.94,0.00
30.895,-1.20,-0.48,0.59,-4.03,0.75,4.26,-1.33,-0.35,-1.86,0.00
30.895,-1.11,-0.43,0.41,-4.03,0.75,4.26,-1.33,-0.35,-1.86,0.00
30.895,-1.11,-0.43,0.41,-3.44,1.93,2.43,-1.33,-0.35,-1.86,0.00
30.934,-1.11,-0.43,0.41,-3.91,2.43,2.84,-1.33,-0.35,-1.86,0.00
30.976,-1.11,-0.43,0.41,-3.91,2.43,2.84,-1.20,-0.21,-2.00,0.00
30.976,-1.11,-0.43,0.41,-6.10,3.74,4.65,-1.20,-0.21,-2.00,0.00
30.977,-1.34,-0.32,0.59,-6.10,3.74,4.65,-1.20,-0.21,-2.00,0.00
31.013,-1.34,-0.32,0.59,-8.00,5.21,4.78,-1.20,-0.21,-2.00,0.00
31.053,-1.34,-0.32,0.59,-8.00,5.21,4.78,-0.40,-0.23,-1.37,0.00
31.054,-1.48,-0.13,0.35,-8.00,5.21,4.78,-0.40,-0.23,-1.37,0.00
31.054,-1.48,-0.13,0.35,-8.46,6.38,2.24,-0.40,-0.23,-1.37,0.00
31.093,-1.54,-0.15,0.55,-8.46,6.38,2.24,-0.40,-0.23,-1.37,0.00
31.093,-1.54,-0.15,0.55,-8.47,5.69,2.82,-0.40,-0.23,-1.37,0.00
31.094,-1.54,-0.15,0.55,-8.47,5.69,2.82,-0.41,-0.55,-0.40,0.00
31.132,-1.54,-0.15,0.55,-9.02,6.23,4.61,-0.41,-0.55,-0.40,0.00
31.171,-1.40,-0.24,0.50,-9.02,6.23,4.61,-0.41,-0.55,-0.40,0.00
31.172,-1.40,-0.24,0.50,-9.02,6.23,4.61,0.42,-0.23,0.76,0.00
31.172,-1.40,-0.24,0.50,-7.87,5.31,3.22,0.42,-0.23,0.76,0.00
31.211,-1.40,-0.24,0.50,-5.12,3.40,3.02,0.42,-0.23,0.76,0.00
31.251,-1.40,-0.24,0.50,-1.94,0.43,3.14,0.42,-0.23,0.76,0.00
31.252,-0.99,-0.56,0.56,-1.94,0.43,3.14,0.42,-0.23,0.76,0.00
31.252,-0.99,-0.56,0.56,-1.94,0.43,3.14,1.11,-0.05,1.89,0.00
31.29,-0.99,-0.56,0.56,-1.02,-2.16,3.81,1.11,-0.05,1.89,0.00
31.291,-0.98,-0.83,0.60,-1.02,-2.16,3.81,1.11,-0.05,1.89,0.00
31.33,-0.98,-0.83,0.60,-1.02,-2.16,3.81,1.99,1.01,1.75,0.00
31.33,-0.98,-0.83,0.60,-0.99,-3.98,3.23,1.99,1.01,1.75,0.00
31.369,-0.98,-0.83,0.60,-0.99,-3.98,3.23,2.45,1.56,1.37,0.00
31.369,-1.21,-0.84,0.42,-0.99,-3.98,3.23,2.45,1.56,1.37,0.00
31.37,-1.21,-0.84,0.42,-2.34,-4.53,2.03,2.45,1.56,1.37,0.00
31.409,-1.21,-0.84,0.42,-2.92,-5.04,1.61,2.45,1.56,1.37,0.00
31.449,-1.04,-0.75,0.51,-2.92,-5.04,1.61,2.45,1.56,1.37,0.00
31.45,-1.04,-0.75,0.51,-0.66,-5.16,2.67,2.45,1.56,1.37,0.00
31.45,-1.04,-0.75,0.51,-0.66,-5.16,2.67,1.75,0.73,1.84,0.00
31.488,-0.74,-0.72,0.41,-0.66,-5.16,2.67,1.75,0.73,1.84,0.00
31.488,-0.74,-0.72,0.41,1.28,-5.87,2.21,1.75,0.73,1.84,0.00
31.527,-0.74,-0.72,0.41,1.28,-5.87,2.21,1.35,-0.03,2.28,0.00
31.528,-0.74,-0.72,0.41,2.89,-6.65,1.19,1.35,-0.03,2.28,0.00
31.568,-0.74,-0.72,0.41,2.89,-6.65,1.19,1.04,-0.56,2.03,0.00
31.568,-0.50,-0.66,0.34,2.89,-6.65,1.19,1.04,-0.56,2.03,0.00
31.569,-0.50,-0.66,0.34,4.45,-7.02,0.83,1.04,-0.56,2.03,0.00
31.607,-0.50,-0.66,0.34,5.09,-7.09,-0.21,1.04,-0.56,2.03,0.00
31.647,-0.50,-0.66,0.34,5.09,-7.09,-0.21,0.52,-0.58,1.17,0.00
31.648,-0.39,-0.45,0.45,5.09,-7.09,-0.21,0.52,-0.58,1.17,0.00
31.648,-0.39,-0.45,0.45,5.49,-5.71,0.93,0.52,-0.58,1.17,0.00
31.686,-0.62,-0.55,0.45,5.49,-5.71,0.93,0.52,-0.58,1.17,0.00
31.687,-0.62,-0.55,0.45,5.16,-4.66,1.03,0.52,-0.58,1.17,0.00
31.726,-0.62,-0.55,0.45,2.40,-6.93,0.05,0.52,-0.58,1.17,0.00
31.727,-0.62,-0.55,0.45,2.40,-6.93,0.05,0.46,-1.40,0.42,0.00
31.766,-0.62,-0.55,0.45,2.40,-6.93,0.05,0.36,-1.14,-0.29,0.00
31.766,-0.36,-0.16,0.51,2.40,-6.93,0.05,0.36,-1.14,-0.29,0.00
31.767,-0.36,-0.16,0.51,5.79,-4.43,-1.57,0.36,-1.14,-0.29,0.00
31.804,-0.36,-0.16,0.51,4.19,-0.99,1.59,0.36,-1.14,-0.29,0.00
31.844,-0.36,-0.16,0.51,4.19,-0.99,1.59,1.02,-0.65,-1.69,0.00
31.845,-0.92,0.02,0.70,4.19,-0.99,1.59,1.02,-0.65,-1.69,0.00
31.845,-0.92,0.02,0.70,-0.56,0.30,2.84,1.02,-0.65,-1.69,0.00
31.883,-0.76,-0.20,0.38,-0.56,0.30,2.84,1.02,-0.65,-1.69,0.00
31.884,-0.76,-0.20,0.38,-1.31,-1.70,-1.52,1.02,-0.65,-1.69,0.00
31.923,-0.76,-0.20,0.38,-1.31,-1.70,-1.52,1.81,-0.41,-1.36,0.00
31.924,-0.76,-0.20,0.38,0.79,-2.12,-1.55,1.81,-0.41,-1.36,0.00
31.963,-0.76,-0.20,0.38,0.79,-2.12,-1.55,1.13,-0.52,-1.55,0.00
31.964,-0.76,-0.20,0.38,-0.42,-2.43,1.21,1.13,-0.52,-1.55,0.00
31.964,-0.81,-0.24,0.72,-0.42,-2.43,1.21,1.13,-0.52,-1.55,0.00
32.002,-0.81,-0.24,0.72,0.26,-1.73,1.53,1.13,-0.52,-1.55,0.00
32.042,-0.81,-0.24,0.72,0.26,-1.73,1.53,1.42,-0.48,-1.94,0.00
32.043,-0.73,-0.12,0.73,0.26,-1.73,1.53,1.42,-0.48,-1.94,0.00
32.043,-0.73,-0.12,0.73,0.69,-0.53,1.07,1.42,-0.48,-1.94,0.00
32.084,-0.87,-0.19,0.94,0.69,-0.53,1.07,1.42,-0.48,-1.94,0.00
32.085,-0.87,-0.19,0.94,0.17,0.07,1.40,1.42,-0.48,-1.94,0.00
32.121,-0.87,-0.19,0.94,0.17,0.07,1.40,1.63,-0.41,-2.08,0.00
32.121,-0.87,-0.19,0.94,-1.16,-0.70,2.85,1.63,-0.41,-2.08,0.00
32.161,-0.87,-0.19,0.94,-1.16,-0.70,2.85,2.12,-0.82,-1.64,0.00
32.162,-0.70,-0.23,0.74,-1.16,-0.70,2.85,2.12,-0.82,-1.64,0.00
32.162,-0.70,-0.23,0.74,-0.60,-0.69,-0.04,2.12,-0.82,-1.64,0.00
32.2,-0.70,-0.23,0.74,0.29,-1.44,0.51,2.12,-0.82,-1.64,0.00
32.239,-0.70,-0.23,0.74,0.29,-1.44,0.51,1.86,-0.45,-1.71,0.00
32.24,-0.61,-0.39,0.82,0.29,-1.44,0.51,1.86,-0.45,-1.71,0.00
32.241,-0.61,-0.39,0.82,0.09,-2.68,0.78,1.86,-0.45,-1.71,0.00
32.279,-0.61,-0.39,0.82,1.48,-2.79,1.02,1.86,-0.45,-1.71,0.00
32.319,-0.61,-0.39,0.82,1.48,-2.79,1.02,1.85,-0.07,-2.12,0.00
32.319,-0.49,-0.43,0.92,1.48,-2.79,1.02,1.85,-0.07,-2.12,0.00
32.32,-0.49,-0.43,0.92,1.60,-3.05,1.74,1.85,-0.07,-2.12,0.00
32.359,-0.49,-0.43,0.92,1.60,-3.05,1.74,2.27,0.32,-2.58,0.00
32.36,-0.61,-0.40,0.71,1.60,-3.05,1.74,2.27,0.32,-2.58,0.00
32.36,-0.61,-0.40,0.71,1.11,-2.97,1.19,2.27,0.32,-2.58,0.00
32.398,-0.61,-0.40,0.71,-0.02,-2.55,-1.00,2.27,0.32,-2.58,0.00
32.438,-0.61,-0.40,0.71,-0.43,-1.50,-1.64,2.27,0.32,-2.58,0.00
32.438,-0.61,-0.40,0.71,-0.43,-1.50,-1.64,2.02,-0.09,-2.23,0.00
32.439,-0.68,-0.19,0.63,-0.43,-1.50,-1.64,2.02,-0.09,-2.23,0.00
32.481,-0.68,-0.19,0.63,-0.69,0.44,-1.05,2.02,-0.09,-2.23,0.00
32.516,-0.68,-0.19,0.63,-0.69,0.44,-1.05,1.45,-0.28,-1.46,0.00
32.517,-0.56,-0.10,0.95,-0.69,0.44,-1.05,1.45,-0.28,-1.46,0.00
32.517,-0.56,-0.10,0.95,0.31,0.09,1.34,1.45,-0.28,-1.46,0.00
32.556,-0.50,-0.18,1.00,0.31,0.09,1.34,1.45,-0.28,-1.46,0.00
32.556,-0.50,-0.18,1.00,0.43,-0.55,2.20,1.45,-0.28,-1.46,0.00
32.595,-0.50,-0.18,1.00,0.43,-0.55,2.20,1.54,-0.35,-1.02,0.00
32.596,-0.50,-0.18,1.00,0.69,-1.40,1.53,1.54,-0.35,-1.02,0.00
32.635,-0.50,-0.18,1.00,0.69,-1.40,1.53,1.34,-0.68,-0.88,0.00
32.636,-0.50,-0.18,1.00,0.41,-1.41,2.18,1.34,-0.68,-0.88,0.00
32.636,-0.43,-0.17,1.10,0.41,-1.41,2.18,1.34,-0.68,-0.88,0.00
32.674,-0.43,-0.17,1.10,1.38,-1.64,2.51,1.34,-0.68,-0.88,0.00
32.714,-0.40,-0.14,0.98,1.38,-1.64,2.51,1.34,-0.68,-0.88,0.00
32.715,-0.40,-0.14,0.98,1.38,-1.64,2.51,1.59,-0.52,-1.25,0.00
32.715,-0.40,-0.14,0.98,1.18,-1.62,1.23,1.59,-0.52,-1.25,0.00
32.754,-0.46,-0.07,0.69,1.18,-1.62,1.23,1.59,-0.52,-1.25,0.00
32.754,-0.46,-0.07,0.69,0.16,-1.60,-0.28,1.59,-0.52,-1.25,0.00
32.793,-0.46,-0.07,0.69,0.16,-1.60,-0.28,1.71,-0.12,-1.48,0.00
32.794,-0.46,-0.07,0.69,0.40,-1.30,-2.06,1.71,-0.12,-1.48,0.00
32.832,-0.46,-0.07,0.69,0.40,-1.30,-2.06,1.18,0.02,-1.45,0.00
32.833,-0.50,-0.05,0.79,0.40,-1.30,-2.06,1.18,0.02,-1.45,0.00
32.833,-0.50,-0.05,0.79,0.16,-1.27,-0.71,1.18,0.02,-1.45,0.00
32.872,-0.50,-0.05,0.79,0.07,-1.32,-0.66,1.18,0.02,-1.45,0.00
32.911,-0.50,-0.05,0.79,0.07,-1.32,-0.66,1.16,0.08,-1.27,0.00
32.911,-0.59,0.02,0.57,0.07,-1.32,-0.66,1.16,0.08,-1.27,0.00
32.911,-0.59,0.02,0.57,-0.79,-0.92,-2.63,1.16,0.08,-1.27,0.00
32.951,-0.59,0.02,0.57,-0.45,-0.30,-3.15,1.16,0.08,-1.27,0.00
32.951,-0.51,0.01,0.65,-0.45,-0.30,-3.15,1.16,0.08,-1.27,0.00
32.99,-0.51,0.01,0.65,-0.45,-0.30,-3.15,0.44,-0.36,-0.82,0.00
32.991,-0.51,0.01,0.65,0.03,-0.81,-1.87,0.44,-0.36,-0.82,0.00
33.031,-0.51,0.01,0.65,0.03,-0.81,-1.87,0.22,0.03,-0.79,0.00
33.031,-0.51,0.01,0.65,-0.30,-1.66,-0.37,0.22,0.03,-0.79,0.00
33.031,-0.51,-0.15,0.75,-0.30,-1.66,-0.37,0.22,0.03,-0.79,0.00
33.07,-0.51,-0.15,0.75,0.33,-2.49,-1.30,0.22,0.03,-0.79,0.00
33.109,-0.51,-0.15,0.75,0.33,-2.49,-1.30,0.31,0.69,-1.15,0.00
33.11,-0.59,-0.24,0.61,0.33,-2.49,-1.30,0.31,0.69,-1.15,0.00
33.11,-0.59,-0.24,0.61,0.67,-2.40,-2.52,0.31,0.69,-1.15,0.00
33.149,-1.01,-0.40,1.01,0.67,-2.40,-2.52,0.31,0.69,-1.15,0.00
33.15,-1.01,-0.40,1.01,-2.48,-3.25,-0.43,0.31,0.69,-1.15,0.00
33.188,-1.01,-0.40,1.01,-2.48,-3.25,-0.43,-0.16,0.94,-1.44,0.00
33.188,-1.01,-0.40,1.01,-3.84,-3.53,2.37,-0.16,0.94,-1.44,0.00
33.228,-1.01,-0.40,1.01,-3.84,-3.53,2.37,0.21,0.36,-0.84,0.00
33.229,-0.94,-0.26,0.52,-3.84,-3.53,2.37,0.21,0.36,-0.84,0.00
33.229,-0.94,-0.26,0.52,-3.71,-2.43,-0.53,0.21,0.36,-0.84,0.00
33.268,-0.94,-0.26,0.52,-2.49,-1.71,-3.38,0.21,0.36,-0.84,0.00
33.307,-0.94,-0.26,0.52,-2.49,-1.71,-3.38,-0.42,-0.00,0.04,0.00
33.308,-0.94,-0.26,0.52,-0.32,-1.52,-3.38,-0.42,-0.00,0.04,0.00
33.308,-0.67,-0.24,0.43,-0.32,-1.52,-3.38,-0.42,-0.00,0.04,0.00
33.347,-0.67,-0.24,0.43,-0.06,-1.33,-2.68,-0.42,-0.00,0.04,0.00
33.386,-0.67,-0.24,0.43,-0.00,-1.01,-3.57,-0.42,-0.00,0.04,0.00
33.387,-0.67,-0.24,0.43,-0.00,-1.01,-3.57,-0.93,0.31,0.21,0.00
33.387,-0.67,-0.24,0.36,-0.00,-1.01,-3.57,-0.93,0.31,0.21,0.00
33.426,-0.67,-0.29,0.59,-0.00,-1.01,-3.57,-0.93,0.31,0.21,0.00
33.426,-0.67,-0.29,0.59,-0.00,-1.01,-3.57,-1.48,0.51,0.11,0.00
33.427,-0.67,-0.29,0.59,0.04,-1.00,-1.69,-1.48,0.51,0.11,0.00
33.465,-0.67,-0.29,0.59,0.28,-0.84,-0.40,-1.48,0.51,0.11,0.00
33.505,-0.67,-0.29,0.59,0.28,-0.84,-0.40,-1.27,0.76,-0.26,0.00
33.506,-0.52,-0.33,0.53,0.28,-0.84,-0.40,-1.27,0.76,-0.26,0.00
33.506,-0.52,-0.33,0.53,1.26,-0.62,-0.89,-1.27,0.76,-0.26,0.00
33.544,-0.52,-0.33,0.53,3.04,-0.42,-0.38,-1.27,0.76,-0.26,0.00
33.584,-0.52,-0.33,0.53,3.04,-0.42,-0.38,-1.07,2.09,-1.15,0.00
33.584,-0.53,-0.45,0.51,3.04,-0.42,-0.38,-1.07,2.09,-1.15,0.00
33.584,-0.53,-0.45,0.51,2.70,-0.62,0.12,-1.07,2.09,-1.15,0.00
33.623,-0.53,-0.45,0.51,-1.55,-0.62,3.58,-1.07,2.09,-1.15,0.00
33.624,-1.14,-0.54,0.70,-1.55,-0.62,3.58,-1.07,2.09,-1.15,0.00
33.663,-1.14,-0.54,0.70,-1.55,-0.62,3.58,-0.54,2.22,-1.95,0.00
33.664,-1.14,-0.54,0.70,-4.23,-0.41,2.99,-0.54,2.22,-1.95,0.00
33.702,-1.14,-0.54,0.70,-3.85,0.88,-1.84,-0.54,2.22,-1.95,0.00
33.703,-1.15,-0.51,0.34,-3.85,0.88,-1.84,-0.54,2.22,-1.95,0.00
33.703,-1.15,-0.51,0.34,-3.85,0.88,-1.84,-0.16,0.62,-1.48,0.00
33.742,-1.15,-0.51,0.34,-4.24,0.34,2.09,-0.16,0.62,-1.48,0.00
33.785,-1.29,-0.36,0.89,-4.24,0.34,2.09,-0.16,0.62,-1.48,0.00
33.786,-1.29,-0.36,0.89,-5.49,2.36,6.13,-0.16,0.62,-1.48,0.00
33.786,-1.29,-0.36,0.89,-5.49,2.36,6.13,-0.80,0.52,-1.55,0.00
33.821,-1.29,-0.36,0.89,-7.34,5.96,4.06,-0.80,0.52,-1.55,0.00
33.822,-1.32,0.11,0.60,-7.34,5.96,4.06,-0.80,0.52,-1.55,0.00
33.861,-1.32,0.11,0.60,-7.34,5.96,4.06,0.44,0.94,-0.90,0.00
33.862,-1.32,0.11,0.60,-5.57,7.59,2.63,0.44,0.94,-0.90,0.00
33.9,-1.32,0.11,0.60,-5.57,7.59,2.63,0.88,-0.05,0.69,0.00
33.901,-1.32,0.11,0.60,-2.46,4.76,2.11,0.88,-0.05,0.69,0.00
33.901,-0.97,-0.16,0.64,-2.46,4.76,2.11,0.88,-0.05,0.69,0.00
33.939,-0.97,-0.16,0.64,-1.69,3.19,3.70,0.88,-0.05,0.69,0.00
33.979,-0.97,-0.16,0.64,-1.69,3.19,3.70,1.76,1.36,0.69,0.00
33.98,-0.97,-0.16,0.64,-3.96,1.79,5.98,1.76,1.36,0.69,0.00
33.98,-1.28,-0.32,0.88,-3.96,1.79,5.98,1.76,1.36,0.69,0.00
34.019,-1.28,-0.32,0.88,-5.83,0.47,2.59,1.76,1.36,0.69,0.00
34.019,-1.59,-0.40,0.61,-5.83,0.47,2.59,1.76,1.36,0.69,0.00
34.059,-1.59,-0.40,0.61,-5.83,0.47,2.59,2.48,1.74,1.30,0.00
34.059,-1.59,-0.40,0.61,-6.59,-0.83,2.83,2.48,1.74,1.30,0.00
34.098,-1.59,-0.40,0.61,-6.59,-0.83,2.83,1.93,0.93,2.41,0.00
34.098,-1.43,-0.48,0.52,-6.59,-0.83,2.83,1.93,0.93,2.41,0.00
34.099,-1.43,-0.48,0.52,-5.27,-2.65,2.33,1.93,0.93,2.41,0.00
34.137,-1.43,-0.48,0.52,-3.58,-3.87,1.81,1.93,0.93,2.41,0.00
34.177,-1.43,-0.48,0.52,-3.58,-3.87,1.81,1.14,0.45,3.14,0.00
34.178,-1.28,-0.58,0.57,-3.58,-3.87,1.81,1.14,0.45,3.14,0.00
34.178,-1.28,-0.58,0.57,-3.24,-5.97,2.39,1.14,0.45,3.14,0.00
34.216,-0.74,-0.69,0.53,-3.24,-5.97,2.39,1.14,0.45,3.14,0.00
34.217,-0.74,-0.69,0.53,-0.76,-8.22,3.51,1.14,0.45,3.14,0.00
34.256,-0.74,-0.69,0.53,-0.76,-8.22,3.51,0.89,-0.15,3.59,0.00
34.257,-0.74,-0.69,0.53,2.30,-9.91,2.12,0.89,-0.15,3.59,0.00
34.296,-0.74,-0.69,0.53,2.30,-9.91,2.12,1.27,0.30,2.58,0.00
34.296,-0.38,-0.53,0.34,2.30,-9.91,2.12,1.27,0.30,2.58,0.00
34.296,-0.38,-0.53,0.34,4.68,-9.38,1.69,1.27,0.30,2.58,0.00
34.335,-0.38,-0.53,0.34,5.27,-9.63,0.41,1.27,0.30,2.58,0.00
34.375,-0.38,-0.53,0.34,5.27,-9.63,0.41,1.40,0.54,1.23,0.00
34.376,-0.38,-0.53,0.34,4.82,-9.25,0.21,1.40,0.54,1.23,0.00
34.376,-0.34,-0.45,0.16,4.82,-9.25,0.21,1.40,0.54,1.23,0.00
34.414,-0.34,-0.45,0.16,5.60,-9.21,-0.19,1.40,0.54,1.23,0.00
34.453,-0.34,-0.45,0.16,7.34,-8.40,-3.39,1.40,0.54,1.23,0.00
34.454,-0.34,-0.45,0.16,7.34,-8.40,-3.39,1.22,1.60,0.36,0.00
34.454,-0.10,-0.38,-0.32,7.34,-8.40,-3.39,1.22,1.60,0.36,0.00
34.493,-0.10,-0.38,-0.32,6.35,-7.88,-3.68,1.22,1.60,0.36,0.00
34.494,-0.35,-0.42,-0.14,6.35,-7.88,-3.68,1.22,1.60,0.36,0.00
34.494,-0.35,-0.42,-0.14,6.35,-7.88,-3.68,-0.92,-0.45,-1.36,0.00
34.533,-0.35,-0.42,-0.14,4.59,-7.41,-2.12,-0.92,-0.45,-1.36,0.00
34.572,-0.35,-0.42,-0.14,4.59,-7.41,-2.12,-2.12,-1.38,-2.27,0.00
34.573,-0.69,-0.56,0.37,4.59,-7.41,-2.12,-2.12,-1.38,-2.27,0.00
34.573,-0.69,-0.56,0.37,2.02,-7.14,1.16,-2.12,-1.38,-2.27,0.00
34.612,-0.69,-0.56,0.37,2.19,-7.15,2.09,-2.12,-1.38,-2.27,0.00
34.652,-0.69,-0.56,0.37,2.19,-7.15,2.09,-1.08,0.54,-3.01,0.00
34.652,-1.00,-0.86,0.21,2.19,-7.15,2.09,-1.08,0.54,-3.01,0.00
34.653,-1.00,-0.86,0.21,-0.57,-7.76,0.46,-1.08,0.54,-3.01,0.00
34.691,-1.39,-0.97,0.06,-0.57,-7.76,0.46,-1.08,0.54,-3.01,0.00
34.692,-1.39,-0.97,0.06,-4.05,-7.60,-2.00,-1.08,0.54,-3.01,0.00
34.73,-1.39,-0.97,0.06,-4.05,-7.60,-2.00,-1.31,0.98,-3.70,0.00
34.731,-1.39,-0.97,0.06,-5.11,-5.95,-0.04,-1.31,0.98,-3.70,0.00
34.77,-1.39,-0.97,0.06,-5.11,-5.95,-0.04,-2.47,-0.36,-3.33,0.00
34.771,-1.31,-0.80,0.66,-5.11,-5.95,-0.04,-2.47,-0.36,-3.33,0.00
34.771,-1.31,-0.80,0.66,-4.59,-3.55,5.23,-2.47,-0.36,-3.33,0.00
34.81,-1.31,-0.80,0.66,-5.27,-1.56,6.20,-2.47,-0.36,-3.33,0.00
34.849,-1.31,-0.80,0.66,-5.27,-1.56,6.20,-1.36,-0.54,-2.88,0.00
34.85,-1.43,-0.65,0.47,-5.27,-1.56,6.20,-1.36,-0.54,-2.88,0.00
34.851,-1.43,-0.65,0.47,-7.08,0.08,4.07,-1.36,-0.54,-2.88,0.00
34.893,-1.21,-0.59,0.28,-7.08,0.08,4.07,-1.36,-0.54,-2.88,0.00
34.894,-1.21,-0.59,0.28,-5.99,1.41,1.72,-1.36,-0.54,-2.88,0.00
34.928,-1.21,-0.59,0.28,-5.99,1.41,1.72,-0.99,-0.75,-2.07,0.00
34.929,-1.21,-0.59,0.28,-5.51,1.76,2.04,-0.99,-0.75,-2.07,0.00
34.968,-1.21,-0.59,0.28,-5.51,1.76,2.04,-1.10,-1.44,-1.85,0.00
34.969,-1.32,-0.44,0.37,-5.51,1.76,2.04,-1.10,-1.44,-1.85,0.00
34.969,-1.32,-0.44,0.37,-6.79,3.04,3.50,-1.10,-1.44,-1.85,0.00
35.007,-1.32,-0.44,0.37,-8.20,4.66,1.94,-1.10,-1.44,-1.85,0.00
35.048,-1.32,-0.44,0.37,-8.20,4.66,1.94,-0.83,-0.87,-1.34,0.00
35.048,-1.41,-0.27,0.41,-8.20,4.66,1.94,-0.83,-0.87,-1.34,0.00
35.049,-1.41,-0.27,0.41,-8.72,5.90,2.53,-0.83,-0.87,-1.34,0.00
35.088,-1.75,-0.24,0.72,-8.72,5.90,2.53,-0.83,-0.87,-1.34,0.00
35.088,-1.75,-0.24,0.72,-9.42,5.41,7.06,-0.83,-0.87,-1.34,0.00
35.126,-1.75,-0.24,0.72,-9.42,5.41,7.06,-0.19,0.04,-0.76,0.00
35.127,-1.75,-0.24,0.72,-12.56,6.18,5.88,-0.19,0.04,-0.76,0.00
35.166,-1.75,-0.24,0.72,-12.56,6.18,5.88,1.25,0.12,0.80,0.00
35.166,-1.52,-0.32,0.34,-12.56,6.18,5.88,1.25,0.12,0.80,0.00
35.167,-1.52,-0.32,0.34,-10.86,5.61,1.91,1.25,0.12,0.80,0.00
35.205,-1.52,-0.32,0.34,-7.31,3.70,1.31,1.25,0.12,0.80,0.00
35.245,-1.52,-0.32,0.34,-7.31,3.70,1.31,1.25,0.49,2.31,0.00
35.246,-1.14,-0.62,0.36,-7.31,3.70,1.31,1.25,0.49,2.31,0.00
35.247,-1.14,-0.62,0.36,-4.05,1.01,1.16,1.25,0.49,2.31,0.00
35.285,-1.14,-0.98,0.92,-4.05,1.01,1.16,1.25,0.49,2.31,0.00
35.285,-1.14,-0.98,0.92,-3.02,-2.06,2.50,1.25,0.49,2.31,0.00
35.323,-1.14,-0.98,0.92,-3.02,-2.06,2.50,0.99,0.79,2.63,0.00
35.324,-1.14,-0.98,0.92,-2.61,-4.87,7.16,0.99,0.79,2.63,0.00
35.364,-1.14,-0.98,0.92,-2.61,-4.87,7.16,2.36,1.42,2.34,0.00
35.365,-1.16,-1.01,0.73,-2.61,-4.87,7.16,2.36,1.42,2.34,0.00
35.365,-1.16,-1.01,0.73,-1.69,-6.21,6.32,2.36,1.42,2.34,0.00
35.402,-1.16,-1.01,0.73,-1.99,-6.81,4.27,2.36,1.42,2.34,0.00
35.442,-1.17,-0.90,0.35,-1.99,-6.81,4.27,2.36,1.42,2.34,0.00
35.443,-1.17,-0.90,0.35,-1.99,-6.81,4.27,2.60,1.56,2.60,0.00
35.443,-1.17,-0.90,0.35,-1.62,-7.22,2.28,2.60,1.56,2.60,0.00
35.482,-0.90,-0.76,0.19,-1.62,-7.22,2.28,2.60,1.56,2.60,0.00
35.483,-0.90,-0.76,0.19,-0.73,-7.56,0.44,2.60,1.56,2.60,0.00
35.521,-0.90,-0.76,0.19,-0.73,-7.56,0.44,1.53,0.69,3.20,0.00
35.522,-0.90,-0.76,0.19,1.43,-8.16,0.48,1.53,0.69,3.20,0.00
35.561,-0.90,-0.76,0.19,1.43,-8.16,0.48,0.60,-0.15,3.10,0.00
35.562,-0.90,-0.76,0.19,2.54,-8.50,0.44,0.60,-0.15,3.10,0.00
35.563,-0.69,-0.69,0.15,2.54,-8.50,0.44,0.60,-0.15,3.10,0.00
35.6,-0.69,-0.69,0.15,3.23,-9.52,-0.26,0.60,-0.15,3.10,0.00
35.64,-0.69,-0.69,0.15,3.23,-9.52,-0.26,-0.09,-0.29,2.67,0.00
35.641,-0.42,-0.61,0.20,3.23,-9.52,-0.26,-0.09,-0.29,2.67,0.00
35.641,-0.42,-0.61,0.20,4.68,-9.75,0.14,-0.09,-0.29,2.67,0.00
35.68,-0.42,-0.61,0.20,5.60,-9.59,0.35,-0.09,-0.29,2.67,0.00
35.719,-0.42,-0.61,0.20,5.60,-9.59,0.35,-0.37,-0.40,1.59,0.00
35.72,-0.24,-0.51,0.12,5.60,-9.59,0.35,-0.37,-0.40,1.59,0.00
35.72,-0.24,-0.51,0.12,6.18,-9.17,-1.00,-0.37,-0.40,1.59,0.00
35.759,-0.23,-0.42,0.14,6.18,-9.17,-1.00,-0.37,-0.40,1.59,0.00
35.759,-0.23,-0.42,0.14,6.18,-9.17,-1.00,-0.65,-0.71,-0.11,0.00
35.76,-0.23,-0.42,0.14,6.73,-8.29,-1.72,-0.65,-0.71,-0.11,0.00
35.798,-0.23,-0.42,0.14,6.04,-7.37,-0.95,-0.65,-0.71,-0.11,0.00
35.838,-0.23,-0.42,0.14,6.04,-7.37,-0.95,-0.46,0.34,-1.91,0.00
35.838,-0.55,-0.43,0.00,6.04,-7.37,-0.95,-0.46,0.34,-1.91,0.00
35.839,-0.55,-0.43,0.00,4.02,-6.74,-1.80,-0.46,0.34,-1.91,0.00
35.877,-0.55,-0.43,0.00,2.53,-5.41,-3.00,-0.46,0.34,-1.91,0.00
35.917,-0.55,-0.43,0.00,1.00,-4.83,-2.27,-0.46,0.34,-1.91,0.00
35.917,-0.84,-0.50,-0.01,1.00,-4.83,-2.27,-0.46,0.34,-1.91,0.00
35.918,-0.84,-0.50,-0.01,1.00,-4.83,-2.27,-0.79,0.38,-2.85,0.00
35.956,-0.84,-0.50,-0.01,-1.75,-4.80,-1.55,-0.79,0.38,-2.85,0.00
35.957,-1.42,-0.77,0.30,-1.75,-4.80,-1.55,-0.79,0.38,-2.85,0.00
35.996,-1.42,-0.77,0.30,-1.75,-4.80,-1.55,-1.53,0.27,-3.35,0.00
35.997,-1.42,-0.77,0.30,-5.96,-5.22,1.95,-1.53,0.27,-3.35,0.00
36.035,-1.42,-0.77,0.30,-5.96,-5.22,1.95,-1.56,0.38,-2.96,0.00
36.036,-1.61,-0.70,0.35,-5.96,-5.22,1.95,-1.56,0.38,-2.96,0.00
36.036,-1.61,-0.70,0.35,-8.80,-3.98,2.15,-1.56,0.38,-2.96,0.00
36.075,-1.61,-0.70,0.35,-5.58,-0.87,1.97,-1.56,0.38,-2.96,0.00
36.114,-1.61,-0.70,0.35,-4.56,1.18,4.43,-1.56,0.38,-2.96,0.00
36.115,-1.61,-0.70,0.35,-4.56,1.18,4.43,-1.89,-0.60,-2.16,0.00
36.115,-1.26,-0.43,0.61,-4.56,1.18,4.43,-1.89,-0.60,-2.16,0.00
36.154,-1.17,-0.32,0.67,-4.56,1.18,4.43,-1.89,-0.60,-2.16,0.00
36.154,-1.17,-0.32,0.67,-3.93,2.23,6.36,-1.89,-0.60,-2.16,0.00
36.196,-1.17,-0.32,0.67,-3.93,2.23,6.36,-1.10,-0.71,-1.56,0.00
36.197,-1.17,-0.32,0.67,-4.09,3.31,4.89,-1.10,-0.71,-1.56,0.00
36.233,-1.04,-0.23,0.12,-4.09,3.31,4.89,-1.10,-0.71,-1.56,0.00
36.234,-1.04,-0.23,0.12,-4.09,3.31,4.89,0.09,-0.65,-1.07,0.00
36.234,-1.04,-0.23,0.12,-3.47,4.34,0.69,0.09,-0.65,-1.07,0.00
36.273,-1.04,-0.23,0.12,-2.90,4.50,-1.66,0.09,-0.65,-1.07,0.00
