
time,gFx,gFy,gFz,ax,ay,az,wx,wy,wz,Latitude,Longitude,Speed (m/s),
0.2060,0.0000,0.0000,0.0000,0.0000,0.0000,0.0000,-0.0232,0.0050,-0.0111,0.00000000,0.00000000,0.00000000,
0.2080,0.0000,0.0000,0.0000,-0.1723,0.6316,-3.0022,-0.0232,0.0050,-0.0111,25.25517667,83.00559833,7.76973200,
0.2730,0.0000,0.0000,0.0000,-0.1723,0.6316,-3.0022,-0.1490,0.0212,-0.0566,25.25517667,83.00559833,7.76973200,
0.2740,0.0000,0.0000,0.0000,-0.5984,-0.6017,3.8666,-0.1490,0.0212,-0.0566,25.25517667,83.00559833,7.76973200,
0.3410,0.0000,0.0000,0.0000,-0.5984,-0.6017,3.8666,0.4771,-0.0283,-0.1480,25.25517667,83.00559833,7.76973200,
0.3420,0.0000,0.0000,0.0000,-0.5411,0.7485,-4.2896,0.4771,-0.0283,-0.1480,25.25517667,83.00559833,7.76973200,
0.4040,0.0000,0.0000,0.0000,-0.5411,0.7485,-4.2896,-0.7950,0.0780,0.0819,25.25517667,83.00559833,7.76973200,
0.4060,0.0000,0.0000,0.0000,-0.0408,-1.1420,1.3369,-0.7950,0.0780,0.0819,25.25517667,83.00559833,7.76973200,
0.4110,-0.0069,0.5954,0.8396,-0.0408,-1.1420,1.3369,-0.7950,0.0780,0.0819,25.25517667,83.00559833,7.76973200,
0.4700,-0.0069,0.5954,0.8396,-0.0408,-1.1420,1.3369,1.0442,-0.1282,0.7362,25.25517667,83.00559833,7.76973200,
0.4720,-0.0069,0.5954,0.8396,0.5819,-0.3004,-0.6383,1.0442,-0.1282,0.7362,25.25517667,83.00559833,7.76973200,
0.4770,0.0640,0.5963,0.8586,0.5819,-0.3004,-0.6383,1.0442,-0.1282,0.7362,25.25517667,83.00559833,7.76973200,
0.5380,0.0640,0.5963,0.8586,0.5819,-0.3004,-0.6383,-1.1060,0.0141,1.5955,25.25517667,83.00559833,7.76973200,
0.5400,0.0640,0.5963,0.8586,1.2384,-1.3561,-0.3326,-1.1060,0.0141,1.5955,25.25517667,83.00559833,7.76973200,
0.5430,0.1791,0.6264,0.6364,1.2384,-1.3561,-0.3326,-1.1060,0.0141,1.5955,25.25517667,83.00559833,7.76973200,
0.6020,0.1791,0.6264,0.6364,1.2384,-1.3561,-0.3326,-0.8253,0.1890,0.0727,25.25517667,83.00559833,7.76973200,
0.6040,0.1791,0.6264,0.6364,-1.2000,-0.5280,3.4697,-0.8253,0.1890,0.0727,25.25517667,83.00559833,7.76973200,
0.6090,-0.0169,0.6084,1.0967,-1.2000,-0.5280,3.4697,-0.8253,0.1890,0.0727,25.25517667,83.00559833,7.76973200,
0.6680,-0.0169,0.6084,1.0967,-1.2000,-0.5280,3.4697,-1.3798,0.3690,-0.3638,25.25517667,83.00559833,7.76973200,
0.6700,-0.0169,0.6084,1.0967,0.4194,-0.4710,-0.4678,-1.3798,0.3690,-0.3638,25.25517667,83.00559833,7.76973200,
0.6750,0.1050,0.5413,0.7585,0.4194,-0.4710,-0.4678,-1.3798,0.3690,-0.3638,25.25517667,83.00559833,7.76973200,
0.7360,0.1050,0.5413,0.7585,0.4194,-0.4710,-0.4678,0.2601,0.0050,0.0698,25.25517667,83.00559833,7.76973200,
0.7380,0.1050,0.5413,0.7585,-0.3602,0.0262,-0.8824,0.2601,0.0050,0.0698,25.25517667,83.00559833,7.76973200,
0.7410,0.0440,0.6034,0.8546,-0.3602,0.0262,-0.8824,0.2601,0.0050,0.0698,25.25517667,83.00559833,7.76973200,
0.8000,0.0440,0.6034,0.8546,-0.3602,0.0262,-0.8824,-0.0849,0.1024,-0.0534,25.25517667,83.00559833,7.76973200,
0.8010,0.0440,0.6034,0.8546,-0.1297,0.1920,0.0926,-0.0849,0.1024,-0.0534,25.25517667,83.00559833,7.76973200,
0.8070,0.0230,0.6714,0.8286,-0.1297,0.1920,0.0926,-0.0849,0.1024,-0.0534,25.25517667,83.00559833,7.76973200,
0.8660,0.0230,0.6714,0.8286,-0.1297,0.1920,0.0926,0.6452,-0.0962,0.6362,25.25517667,83.00559833,7.76973200,
0.8680,0.0230,0.6714,0.8286,0.9482,0.2189,1.1724,0.6452,-0.0962,0.6362,25.25517667,83.00559833,7.76973200,
0.8730,0.1761,0.6454,0.8986,0.9482,0.2189,1.1724,0.6452,-0.0962,0.6362,25.25517667,83.00559833,7.76973200,
0.9340,0.1761,0.6454,0.8986,0.9482,0.2189,1.1724,0.3238,-0.0265,0.3624,25.25517667,83.00559833,7.76973200,
0.9360,0.1761,0.6454,0.8986,0.1795,1.3975,-0.0074,0.3238,-0.0265,0.3624,25.25517667,83.00559833,7.76973200,
0.9390,0.0510,0.7926,0.8396,0.1795,1.3975,-0.0074,0.3238,-0.0265,0.3624,25.25517667,83.00559833,7.76973200,
0.9980,0.0510,0.7926,0.8396,0.1795,1.3975,-0.0074,0.4014,0.0964,-0.4607,25.25517667,83.00559833,7.76973200,
1.0000,0.0510,0.7926,0.8396,-0.4922,0.3864,0.4740,0.4014,0.0964,-0.4607,25.25517667,83.00559833,7.76973200,
1.0050,0.0300,0.6635,0.9286,-0.4922,0.3864,0.4740,0.4014,0.0964,-0.4607,25.25517667,83.00559833,7.76973200,
1.0640,0.0300,0.6635,0.9286,-0.4922,0.3864,0.4740,0.2808,0.0600,-0.3521,25.25517667,83.00559833,7.76973200,
1.0660,0.0300,0.6635,0.9286,-0.2234,0.9602,-1.5349,0.2808,0.0600,-0.3521,25.25517667,83.00559833,7.76973200,
1.0750,0.0360,0.7485,0.6014,-0.2234,0.9602,-1.5349,0.2808,0.0600,-0.3521,25.25517667,83.00559833,7.76973200,
1.1330,0.0360,0.7485,0.6014,-0.2234,0.9602,-1.5349,-0.0037,-0.0178,-0.2342,25.25517667,83.00559833,7.76973200,
1.1350,0.0360,0.7485,0.6014,-0.0269,-0.8083,3.3802,-0.0037,-0.0178,-0.2342,25.25515667,83.00567833,7.98437119,
1.1370,0.0670,0.5563,1.0728,-0.0269,-0.8083,3.3802,-0.0037,-0.0178,-0.2342,25.25515667,83.00567833,7.98437119,
1.1960,0.0670,0.5563,1.0728,-0.0269,-0.8083,3.3802,-0.2635,-0.1358,0.4830,25.25515667,83.00567833,7.98437119,
1.1980,0.0670,0.5563,1.0728,0.9561,0.8597,-1.5651,-0.2635,-0.1358,0.4830,25.25515667,83.00567833,7.98437119,
1.2030,0.1441,0.7605,0.4873,0.9561,0.8597,-1.5651,-0.2635,-0.1358,0.4830,25.25515667,83.00567833,7.98437119,
1.2620,0.1441,0.7605,0.4873,0.9561,0.8597,-1.5651,-0.1840,-0.1520,0.0672,25.25515667,83.00567833,7.98437119,
1.2630,0.1441,0.7605,0.4873,0.2964,-0.9980,2.3729,-0.1840,-0.1520,0.0672,25.25515667,83.00567833,7.98437119,
1.2690,0.1191,0.5494,0.9966,0.2964,-0.9980,2.3729,-0.1840,-0.1520,0.0672,25.25515667,83.00567833,7.98437119,
1.3310,0.1191,0.5494,0.9966,0.2964,-0.9980,2.3729,0.3196,-0.2507,-0.0062,25.25515667,83.00567833,7.98437119,
1.3330,0.1191,0.5494,0.9966,-0.0912,0.5959,-2.1378,0.3196,-0.2507,-0.0062,25.25515667,83.00567833,7.98437119,
1.3350,0.0931,0.7135,0.5334,-0.0912,0.5959,-2.1378,0.3196,-0.2507,-0.0062,25.25515667,83.00567833,7.98437119,
1.3940,0.0931,0.7135,0.5334,-0.0912,0.5959,-2.1378,0.3141,-0.2906,0.6401,25.25515667,83.00567833,7.98437119,
1.3970,0.0931,0.7135,0.5334,0.8470,-0.6000,0.3914,0.3141,-0.2906,0.6401,25.25515667,83.00567833,7.98437119,
1.4010,0.1710,0.6264,0.7935,0.8470,-0.6000,0.3914,0.3141,-0.2906,0.6401,25.25515667,83.00567833,7.98437119,
1.4610,0.1710,0.6264,0.7935,0.8470,-0.6000,0.3914,-0.1184,-0.1598,0.2349,25.25515667,83.00567833,7.98437119,
1.4640,0.1710,0.6264,0.7935,0.3026,-0.1463,-1.0930,-0.1184,-0.1598,0.2349,25.25515667,83.00567833,7.98437119,
1.4670,0.2332,0.6844,0.5584,0.3026,-0.1463,-1.0930,-0.1184,-0.1598,0.2349,25.25515667,83.00567833,7.98437119,
1.5280,0.2332,0.6844,0.5584,0.3026,-0.1463,-1.0930,0.4688,-0.2463,-0.2173,25.25515667,83.00567833,7.98437119,
1.5300,0.2332,0.6844,0.5584,-0.5928,-0.1516,1.1540,0.4688,-0.2463,-0.2173,25.25515667,83.00567833,7.98437119,
1.5330,0.1131,0.6854,0.8105,-0.5928,-0.1516,1.1540,0.4688,-0.2463,-0.2173,25.25515667,83.00567833,7.98437119,
1.5930,0.1131,0.6854,0.8105,-0.5928,-0.1516,1.1540,-0.9970,0.2505,-0.5527,25.25515667,83.00567833,7.98437119,
1.5940,0.1131,0.6854,0.8105,-0.6066,-0.1190,1.2509,-0.9970,0.2505,-0.5527,25.25515667,83.00567833,7.98437119,
1.5990,0.0960,0.6694,0.7826,-0.6066,-0.1190,1.2509,-0.9970,0.2505,-0.5527,25.25515667,83.00567833,7.98437119,
1.6580,0.0960,0.6694,0.7826,-0.6066,-0.1190,1.2509,0.0368,-0.0812,-0.1267,25.25515667,83.00567833,7.98437119,
1.6600,0.0960,0.6694,0.7826,0.2950,-0.2134,-0.8546,0.0368,-0.0812,-0.1267,25.25515667,83.00567833,7.98437119,
1.6650,0.1231,0.6354,0.6874,0.2950,-0.2134,-0.8546,0.0368,-0.0812,-0.1267,25.25515667,83.00567833,7.98437119,
1.7260,0.1231,0.6354,0.6874,0.2950,-0.2134,-0.8546,0.4584,-0.2106,0.2250,25.25515667,83.00567833,7.98437119,
1.7280,0.1231,0.6354,0.6874,0.1841,-0.0940,-1.8341,0.4584,-0.2106,0.2250,25.25515667,83.00567833,7.98437119,
1.7310,0.1620,0.6635,0.5393,0.1841,-0.0940,-1.8341,0.4584,-0.2106,0.2250,25.25515667,83.00567833,7.98437119,
1.7900,0.1620,0.6635,0.5393,0.1841,-0.0940,-1.8341,0.9744,-0.3148,-0.2627,25.25515667,83.00567833,7.98437119,
1.7920,0.1620,0.6635,0.5393,-0.3232,-0.9788,0.5504,0.9744,-0.3148,-0.2627,25.25515667,83.00567833,7.98437119,
1.7970,0.1160,0.6214,0.7335,-0.3232,-0.9788,0.5504,0.9744,-0.3148,-0.2627,25.25515667,83.00567833,7.98437119,
1.8560,0.1160,0.6214,0.7335,-0.3232,-0.9788,0.5504,-0.8709,0.0963,0.0507,25.25515667,83.00567833,7.98437119,
1.8580,0.1160,0.6214,0.7335,0.0146,-0.0435,-0.4895,-0.8709,0.0963,0.0507,25.25515667,83.00567833,7.98437119,
1.8630,0.0850,0.7435,0.5934,0.0146,-0.0435,-0.4895,-0.8709,0.0963,0.0507,25.25515667,83.00567833,7.98437119,
1.9240,0.0850,0.7435,0.5934,0.0146,-0.0435,-0.4895,-0.1794,-0.0098,-0.5946,25.25515667,83.00567833,7.98437119,
1.9260,0.0850,0.7435,0.5934,-0.3687,-0.2692,2.0426,-0.1794,-0.0098,-0.5946,25.25515667,83.00567833,7.98437119,
1.9290,0.0780,0.6544,0.9316,-0.3687,-0.2692,2.0426,-0.1794,-0.0098,-0.5946,25.25515667,83.00567833,7.98437119,
1.9880,0.0780,0.6544,0.9316,-0.3687,-0.2692,2.0426,-0.3835,0.1201,-0.5957,25.25515667,83.00567833,7.98437119,
1.9900,0.0780,0.6544,0.9316,-0.6614,0.4385,1.3442,-0.3835,0.1201,-0.5957,25.25515667,83.00567833,7.98437119,
1.9950,0.0200,0.7054,0.8836,-0.6614,0.4385,1.3442,-0.3835,0.1201,-0.5957,25.25515667,83.00567833,7.98437119,
2.0550,0.0200,0.7054,0.8836,-0.6614,0.4385,1.3442,-0.3053,0.0403,0.2354,25.25515667,83.00567833,7.98437119,
2.0570,0.0200,0.7054,0.8836,0.5251,-0.0051,-0.1880,-0.3053,0.0403,0.2354,25.25515667,83.00567833,7.98437119,
2.0610,0.0860,0.6735,0.6874,0.5251,-0.0051,-0.1880,-0.3053,0.0403,0.2354,25.25515667,83.00567833,7.98437119,
2.1230,0.0860,0.6735,0.6874,0.5251,-0.0051,-0.1880,0.5628,-0.0589,-0.1772,25.25515667,83.00567833,7.98437119,
2.1250,0.0860,0.6735,0.6874,0.0316,0.3443,-1.3582,0.5628,-0.0589,-0.1772,25.25513667,83.00575500,8.49600506,
2.1280,0.0710,0.6995,0.6054,0.0316,0.3443,-1.3582,0.5628,-0.0589,-0.1772,25.25513667,83.00575500,8.49600506,
2.1860,0.0710,0.6995,0.6054,0.0316,0.3443,-1.3582,1.5004,-0.2686,0.5516,25.25513667,83.00575500,8.49600506,
2.1880,0.0710,0.6995,0.6054,0.8191,0.3181,-1.8153,1.5004,-0.2686,0.5516,25.25513667,83.00575500,8.49600506,
2.1930,0.2271,0.7214,0.5954,0.8191,0.3181,-1.8153,1.5004,-0.2686,0.5516,25.25513667,83.00575500,8.49600506,
2.2520,0.2271,0.7214,0.5954,0.8191,0.3181,-1.8153,-1.0408,0.1590,1.0132,25.25513667,83.00575500,8.49600506,
2.2540,0.2271,0.7214,0.5954,0.5778,-0.5927,1.3559,-1.0408,0.1590,1.0132,25.25513667,83.00575500,8.49600506,
2.2590,0.2171,0.6254,0.8496,0.5778,-0.5927,1.3559,-1.0408,0.1590,1.0132,25.25513667,83.00575500,8.49600506,
2.3210,0.2171,0.6254,0.8496,0.5778,-0.5927,1.3559,-0.4949,0.1753,0.1349,25.25513667,83.00575500,8.49600506,
2.3230,0.2171,0.6254,0.8496,-0.9473,0.0120,1.5604,-0.4949,0.1753,0.1349,25.25513667,83.00575500,8.49600506,
2.3250,0.0830,0.6273,0.8896,-0.9473,0.0120,1.5604,-0.4949,0.1753,0.1349,25.25513667,83.00575500,8.49600506,
2.3840,0.0830,0.6273,0.8896,-0.9473,0.0120,1.5604,0.1325,0.0804,-0.2972,25.25513667,83.00575500,8.49600506,
2.3860,0.0830,0.6273,0.8896,-0.5938,0.7201,-1.2435,0.1325,0.0804,-0.2972,25.25513667,83.00575500,8.49600506,
2.3910,0.0680,0.7245,0.6204,-0.5938,0.7201,-1.2435,0.1325,0.0804,-0.2972,25.25513667,83.00575500,8.49600506,
2.4500,0.0680,0.7245,0.6204,-0.5938,0.7201,-1.2435,0.3302,0.0842,-0.8023,25.25513667,83.00575500,8.49600506,
2.4520,0.0680,0.7245,0.6204,-0.5050,0.0446,-0.4265,0.3302,0.0842,-0.8023,25.25513667,83.00575500,8.49600506,
2.4570,0.1120,0.6864,0.6644,-0.5050,0.0446,-0.4265,0.3302,0.0842,-0.8023,25.25513667,83.00575500,8.49600506,
2.5180,0.1120,0.6864,0.6644,-0.5050,0.0446,-0.4265,0.4452,-0.0258,-0.2559,25.25513667,83.00575500,8.49600506,
2.5200,0.1120,0.6864,0.6644,-0.2951,-0.2224,1.1840,0.4452,-0.0258,-0.2559,25.25513667,83.00575500,8.49600506,
2.5230,0.1210,0.6264,0.8376,-0.2951,-0.2224,1.1840,0.4452,-0.0258,-0.2559,25.25513667,83.00575500,8.49600506,
2.5820,0.1210,0.6264,0.8376,-0.2951,-0.2224,1.1840,0.1083,-0.1008,0.5321,25.25513667,83.00575500,8.49600506,
2.5840,0.1210,0.6264,0.8376,0.6847,0.1240,-1.4210,0.1083,-0.1008,0.5321,25.25513667,83.00575500,8.49600506,
2.5890,0.1831,0.7214,0.5413,0.6847,0.1240,-1.4210,0.1083,-0.1008,0.5321,25.25513667,83.00575500,8.49600506,
2.6480,0.1831,0.7214,0.5413,0.6847,0.1240,-1.4210,-0.1756,-0.0081,0.3601,25.25513667,83.00575500,8.49600506,
2.6500,0.1831,0.7214,0.5413,-0.1839,-0.5415,1.5111,-0.1756,-0.0081,0.3601,25.25513667,83.00575500,8.49600506,
2.6550,0.0810,0.6574,0.8215,-0.1839,-0.5415,1.5111,-0.1756,-0.0081,0.3601,25.25513667,83.00575500,8.49600506,
2.7180,0.0810,0.6574,0.8215,-0.1839,-0.5415,1.5111,0.3173,-0.0056,-0.1453,25.25513667,83.00575500,8.49600506,
2.7200,0.0810,0.6574,0.8215,-1.0808,0.3694,0.2019,0.3173,-0.0056,-0.1453,25.25513667,83.00575500,8.49600506,
2.7210,-0.0480,0.6824,0.8916,-1.0808,0.3694,0.2019,0.3173,-0.0056,-0.1453,25.25513667,83.00575500,8.49600506,
2.7800,-0.0480,0.6824,0.8916,-1.0808,0.3694,0.2019,-0.4724,0.2512,-0.9769,25.25513667,83.00575500,8.49600506,
2.7820,-0.0480,0.6824,0.8916,-0.4523,-0.3193,-1.1399,-0.4724,0.2512,-0.9769,25.25513667,83.00575500,8.49600506,
2.7870,0.0319,0.6764,0.5484,-0.4523,-0.3193,-1.1399,-0.4724,0.2512,-0.9769,25.25513667,83.00575500,8.49600506,
2.8460,0.0319,0.6764,0.5484,-0.4523,-0.3193,-1.1399,0.7859,0.0445,-0.4999,25.25513667,83.00575500,8.49600506,
2.8480,0.0319,0.6764,0.5484,-0.2503,0.3467,-1.3554,0.7859,0.0445,-0.4999,25.25513667,83.00575500,8.49600506,
2.8530,0.0390,0.7355,0.5954,-0.2503,0.3467,-1.3554,0.7859,0.0445,-0.4999,25.25513667,83.00575500,8.49600506,
2.9140,0.0390,0.7355,0.5954,-0.2503,0.3467,-1.3554,-1.2626,0.1249,0.6556,25.25513667,83.00575500,8.49600506,
2.9150,0.0390,0.7355,0.5954,1.3990,-1.0253,0.6130,-1.2626,0.1249,0.6556,25.25513667,83.00575500,8.49600506,
2.9190,0.1911,0.5834,0.7876,1.3990,-1.0253,0.6130,-1.2626,0.1249,0.6556,25.25513667,83.00575500,8.49600506,
2.9780,0.1911,0.5834,0.7876,1.3990,-1.0253,0.6130,1.0636,-0.2753,0.8766,25.25513667,83.00575500,8.49600506,
2.9800,0.1911,0.5834,0.7876,-0.9699,-0.1399,1.4555,1.0636,-0.2753,0.8766,25.25513667,83.00575500,8.49600506,
2.9850,0.0360,0.5033,1.2389,-0.9699,-0.1399,1.4555,1.0636,-0.2753,0.8766,25.25513667,83.00575500,8.49600506,
3.0440,0.0360,0.5033,1.2389,-0.9699,-0.1399,1.4555,-1.2186,0.1030,1.0962,25.25513667,83.00575500,8.49600506,
3.0470,0.0360,0.5033,1.2389,1.6538,0.0986,-3.8186,-1.2186,0.1030,1.0962,25.25513667,83.00575500,8.49600506,
3.0620,0.2871,0.8336,0.1681,1.6538,0.0986,-3.8186,-1.2186,0.1030,1.0962,25.25513667,83.00575500,8.49600506,
3.1200,0.2871,0.8336,0.1681,1.6538,0.0986,-3.8186,0.9637,-0.3666,0.1130,25.25513667,83.00575500,8.49600506,
3.1220,0.2871,0.8336,0.1681,-0.3514,0.7589,2.2518,0.9637,-0.3666,0.1130,25.25513667,83.00575500,8.49600506,
3.1240,0.1170,0.7124,1.1448,-0.3514,0.7589,2.2518,0.9637,-0.3666,0.1130,25.25513667,83.00575500,8.49600506,
3.1760,0.1170,0.7124,1.1448,-0.3514,0.7589,2.2518,-1.9862,0.3783,-0.3196,25.25513667,83.00575500,8.49600506,
3.1780,0.1170,0.7124,1.1448,0.4102,0.1718,2.3989,-1.9862,0.3783,-0.3196,25.25511167,83.00584167,9.53728771,
3.1830,0.1781,0.6464,0.8966,0.4102,0.1718,2.3989,-1.9862,0.3783,-0.3196,25.25511167,83.00584167,9.53728771,
3.2420,0.1781,0.6464,0.8966,0.4102,0.1718,2.3989,-0.4491,0.0985,-0.0581,25.25511167,83.00584167,9.53728771,
3.2440,0.1781,0.6464,0.8966,-0.0538,0.4122,0.0520,-0.4491,0.0985,-0.0581,25.25511167,83.00584167,9.53728771,
3.2490,0.1560,0.6284,0.6744,-0.0538,0.4122,0.0520,-0.4491,0.0985,-0.0581,25.25511167,83.00584167,9.53728771,
3.3110,0.1560,0.6284,0.6744,-0.0538,0.4122,0.0520,0.9999,-0.1878,-0.1998,25.25511167,83.00584167,9.53728771,
3.3140,0.1560,0.6284,0.6744,-1.1877,0.4308,-0.9812,0.9999,-0.1878,-0.1998,25.25511167,83.00584167,9.53728771,
3.3160,0.0109,0.6854,0.6564,-1.1877,0.4308,-0.9812,0.9999,-0.1878,-0.1998,25.25511167,83.00584167,9.53728771,
3.3890,0.0109,0.6854,0.6564,-1.1877,0.4308,-0.9812,0.4539,0.0020,-0.8922,25.25511167,83.00584167,9.53728771,
3.3930,0.0109,0.6854,0.6564,-0.1087,-0.4288,-1.3036,0.4539,0.0020,-0.8922,25.25511167,83.00584167,9.53728771,
3.3940,0.0860,0.6223,0.6073,-0.1087,-0.4288,-1.3036,0.4539,0.0020,-0.8922,25.25511167,83.00584167,9.53728771,
3.4470,0.0860,0.6223,0.6073,-0.1087,-0.4288,-1.3036,0.8023,-0.0923,-0.2047,25.25511167,83.00584167,9.53728771,
3.4560,0.0860,0.6223,0.6073,0.0512,-0.2666,-0.6322,0.8023,-0.0923,-0.2047,25.25511167,83.00584167,9.53728771,
3.4570,0.1420,0.6574,0.6914,0.0512,-0.2666,-0.6322,0.8023,-0.0923,-0.2047,25.25511167,83.00584167,9.53728771,
3.5090,0.1420,0.6574,0.6914,0.0512,-0.2666,-0.6322,-0.1513,-0.0184,0.2394,25.25511167,83.00584167,9.53728771,
3.5130,0.1420,0.6574,0.6914,-0.0431,0.0316,0.8846,-0.1513,-0.0184,0.2394,25.25511167,83.00584167,9.53728771,
3.5140,0.0840,0.7164,0.8586,-0.0431,0.0316,0.8846,-0.1513,-0.0184,0.2394,25.25511167,83.00584167,9.53728771,
3.5720,0.0840,0.7164,0.8586,-0.0431,0.0316,0.8846,-0.9120,0.0662,0.5722,25.25511167,83.00584167,9.53728771,
3.5750,0.0840,0.7164,0.8586,1.1432,-0.3357,0.5893,-0.9120,0.0662,0.5722,25.25511167,83.00584167,9.53728771,
3.5790,0.2301,0.6304,0.7995,1.1432,-0.3357,0.5893,-0.9120,0.0662,0.5722,25.25511167,83.00584167,9.53728771,
3.6410,0.2301,0.6304,0.7995,1.1432,-0.3357,0.5893,0.1970,-0.1238,0.5898,25.25511167,83.00584167,9.53728771,
3.6460,0.2301,0.6304,0.7995,0.1228,0.4031,-0.6506,0.1970,-0.1238,0.5898,25.25511167,83.00584167,9.53728771,
3.6510,0.1811,0.6935,0.7045,0.1228,0.4031,-0.6506,0.1970,-0.1238,0.5898,25.25511167,83.00584167,9.53728771,
3.7060,0.1811,0.6935,0.7045,0.1228,0.4031,-0.6506,0.4081,-0.1032,0.1413,25.25511167,83.00584167,9.53728771,
3.7090,0.1811,0.6935,0.7045,-0.1167,0.3069,-0.3407,0.4081,-0.1032,0.1413,25.25511167,83.00584167,9.53728771,
3.7110,0.1400,0.6895,0.7605,-0.1167,0.3069,-0.3407,0.4081,-0.1032,0.1413,25.25511167,83.00584167,9.53728771,
3.7700,0.1400,0.6895,0.7605,-0.1167,0.3069,-0.3407,-0.2157,0.0927,-0.0759,25.25511167,83.00584167,9.53728771,
3.7730,0.1400,0.6895,0.7605,-0.0831,-0.2156,0.0991,-0.2157,0.0927,-0.0759,25.25511167,83.00584167,9.53728771,
3.7780,0.1451,0.6754,0.6254,-0.0831,-0.2156,0.0991,-0.2157,0.0927,-0.0759,25.25511167,83.00584167,9.53728771,
3.8370,0.1451,0.6754,0.6254,-0.0831,-0.2156,0.0991,0.3995,0.0390,-0.7975,25.25511167,83.00584167,9.53728771,
3.8410,0.1451,0.6754,0.6254,-0.8702,0.1033,0.1067,0.3995,0.0390,-0.7975,25.25511167,83.00584167,9.53728771,
3.8430,0.0390,0.7104,0.7145,-0.8702,0.1033,0.1067,0.3995,0.0390,-0.7975,25.25511167,83.00584167,9.53728771,
3.9040,0.0390,0.7104,0.7145,-0.8702,0.1033,0.1067,-0.4594,0.2317,-1.0517,25.25511167,83.00584167,9.53728771,
3.9110,0.0390,0.7104,0.7145,-0.6983,-0.2480,0.8963,-0.4594,0.2317,-1.0517,25.25511167,83.00584167,9.53728771,
3.9120,0.0280,0.6685,0.7385,-0.6983,-0.2480,0.8963,-0.4594,0.2317,-1.0517,25.25511167,83.00584167,9.53728771,
3.9690,0.0280,0.6685,0.7385,-0.6983,-0.2480,0.8963,-0.1216,0.0760,-0.3064,25.25511167,83.00584167,9.53728771,
3.9740,0.0280,0.6685,0.7385,-0.0343,-0.2892,-0.2512,-0.1216,0.0760,-0.3064,25.25511167,83.00584167,9.53728771,
3.9760,0.0259,0.6484,0.7274,-0.0343,-0.2892,-0.2512,-0.1216,0.0760,-0.3064,25.25511167,83.00584167,9.53728771,
4.0350,0.0259,0.6484,0.7274,-0.0343,-0.2892,-0.2512,0.1213,-0.0664,0.5002,25.25511167,83.00584167,9.53728771,
4.0610,0.0259,0.6484,0.7274,0.7439,-0.3686,-0.3089,0.1213,-0.0664,0.5002,25.25511167,83.00584167,9.53728771,
4.0630,0.1341,0.6414,0.7605,0.7439,-0.3686,-0.3089,0.1213,-0.0664,0.5002,25.25511167,83.00584167,9.53728771,
4.1060,0.1341,0.6414,0.7605,0.7439,-0.3686,-0.3089,-0.3152,-0.0684,0.9175,25.25511167,83.00584167,9.53728771,
4.1130,0.1341,0.6414,0.7605,1.1224,-0.6112,0.1967,-0.3152,-0.0684,0.9175,25.25511167,83.00584167,9.53728771,
4.1150,0.2461,0.6494,0.6454,1.1224,-0.6112,0.1967,-0.3152,-0.0684,0.9175,25.25511167,83.00584167,9.53728771,
4.1660,0.2461,0.6494,0.6454,1.1224,-0.6112,0.1967,0.3944,-0.1711,0.6859,25.25511167,83.00584167,9.53728771,
4.1680,0.2461,0.6494,0.6454,-0.1954,0.3181,0.0114,0.3944,-0.1711,0.6859,25.25508667,83.00594000,10.25841427,
4.1730,0.0900,0.7014,0.8446,-0.1954,0.3181,0.0114,0.3944,-0.1711,0.6859,25.25508667,83.00594000,10.25841427,
4.2320,0.0900,0.7014,0.8446,-0.1954,0.3181,0.0114,-0.4315,0.1596,-0.2634,25.25508667,83.00594000,10.25841427,
4.2340,0.0900,0.7014,0.8446,0.1931,0.3275,-0.0688,-0.4315,0.1596,-0.2634,25.25508667,83.00594000,10.25841427,
4.2390,0.1510,0.6935,0.7335,0.1931,0.3275,-0.0688,-0.4315,0.1596,-0.2634,25.25508667,83.00594000,10.25841427,
4.3020,0.1510,0.6935,0.7335,0.1931,0.3275,-0.0688,0.4681,-0.0412,-0.1113,25.25508667,83.00594000,10.25841427,
4.3050,0.1510,0.6935,0.7335,-0.5279,0.2886,0.8403,0.4681,-0.0412,-0.1113,25.25508667,83.00594000,10.25841427,
4.3060,0.0700,0.6264,0.9966,-0.5279,0.2886,0.8403,0.4681,-0.0412,-0.1113,25.25508667,83.00594000,10.25841427,
4.3650,0.0700,0.6264,0.9966,-0.5279,0.2886,0.8403,-0.5648,0.0739,0.2220,25.25508667,83.00594000,10.25841427,
4.3690,0.0700,0.6264,0.9966,0.7587,-0.1264,-1.0430,-0.5648,0.0739,0.2220,25.25508667,83.00594000,10.25841427,
4.3720,0.1751,0.6685,0.4963,0.7587,-0.1264,-1.0430,-0.5648,0.0739,0.2220,25.25508667,83.00594000,10.25841427,
4.4310,0.1751,0.6685,0.4963,0.7587,-0.1264,-1.0430,0.6501,-0.2470,0.3807,25.25508667,83.00594000,10.25841427,
4.4360,0.1751,0.6685,0.4963,0.5809,-0.3913,-0.8021,0.6501,-0.2470,0.3807,25.25508667,83.00594000,10.25841427,
4.4400,0.2792,0.6374,0.5613,0.5809,-0.3913,-0.8021,0.6501,-0.2470,0.3807,25.25508667,83.00594000,10.25841427,
4.4980,0.2792,0.6374,0.5613,0.5809,-0.3913,-0.8021,0.4695,-0.2679,0.4925,25.25508667,83.00594000,10.25841427,
4.5020,0.2792,0.6374,0.5613,-0.2597,-0.4770,1.2642,0.4695,-0.2679,0.4925,25.25508667,83.00594000,10.25841427,
4.5030,0.1761,0.6524,0.8136,-0.2597,-0.4770,1.2642,0.4695,-0.2679,0.4925,25.25508667,83.00594000,10.25841427,
4.5620,0.1761,0.6524,0.8136,-0.2597,-0.4770,1.2642,0.3846,-0.1917,0.1406,25.25508667,83.00594000,10.25841427,
4.5660,0.1761,0.6524,0.8136,0.0029,0.3960,-2.3495,0.3846,-0.1917,0.1406,25.25508667,83.00594000,10.25841427,
4.5700,0.1741,0.7405,0.4603,0.0029,0.3960,-2.3495,0.3846,-0.1917,0.1406,25.25508667,83.00594000,10.25841427,
4.6290,0.1741,0.7405,0.4603,0.0029,0.3960,-2.3495,-0.2705,0.1701,-0.7826,25.25508667,83.00594000,10.25841427,
4.6330,0.1741,0.7405,0.4603,-1.3031,-0.4376,2.1980,-0.2705,0.1701,-0.7826,25.25508667,83.00594000,10.25841427,
4.6380,0.0200,0.6945,0.8826,-1.3031,-0.4376,2.1980,-0.2705,0.1701,-0.7826,25.25508667,83.00594000,10.25841427,
4.6960,0.0200,0.6945,0.8826,-1.3031,-0.4376,2.1980,-0.0687,0.1769,-1.1514,25.25508667,83.00594000,10.25841427,
4.6990,0.0200,0.6945,0.8826,0.5971,0.5025,-1.0567,-0.0687,0.1769,-1.1514,25.25508667,83.00594000,10.25841427,
4.7010,0.1641,0.7505,0.6004,0.5971,0.5025,-1.0567,-0.0687,0.1769,-1.1514,25.25508667,83.00594000,10.25841427,
4.7610,0.1641,0.7505,0.6004,0.5971,0.5025,-1.0567,-0.5305,0.0184,0.8589,25.25508667,83.00594000,10.25841427,
4.7640,0.1641,0.7505,0.6004,1.3114,-1.4721,1.1261,-0.5305,0.0184,0.8589,25.25508667,83.00594000,10.25841427,
4.7690,0.3082,0.5784,0.6874,1.3114,-1.4721,1.1261,-0.5305,0.0184,0.8589,25.25508667,83.00594000,10.25841427,
4.8280,0.3082,0.5784,0.6874,1.3114,-1.4721,1.1261,0.6404,-0.3055,1.1765,25.25508667,83.00594000,10.25841427,
4.8340,0.3082,0.5784,0.6874,0.0573,-0.4364,-2.3186,0.6404,-0.3055,1.1765,25.25508667,83.00594000,10.25841427,
4.8350,0.2642,0.5794,0.6864,0.0573,-0.4364,-2.3186,0.6404,-0.3055,1.1765,25.25508667,83.00594000,10.25841427,
4.8950,0.2642,0.5794,0.6864,0.0573,-0.4364,-2.3186,0.7723,-0.3152,0.9059,25.25508667,83.00594000,10.25841427,
4.9010,0.2642,0.5794,0.6864,-0.2677,0.2982,-2.2259,0.7723,-0.3152,0.9059,25.25508667,83.00594000,10.25841427,
4.9030,0.2432,0.7135,0.4522,-0.2677,0.2982,-2.2259,0.7723,-0.3152,0.9059,25.25508667,83.00594000,10.25841427,
4.9600,0.2432,0.7135,0.4522,-0.2677,0.2982,-2.2259,0.3221,0.0430,-0.4550,25.25508667,83.00594000,10.25841427,
4.9660,0.2432,0.7135,0.4522,-0.8150,-0.9932,0.3975,0.3221,0.0430,-0.4550,25.25508667,83.00594000,10.25841427,
4.9680,0.1720,0.6154,0.6904,-0.8150,-0.9932,0.3975,0.3221,0.0430,-0.4550,25.25508667,83.00594000,10.25841427,
5.0250,0.1720,0.6154,0.6904,-0.8150,-0.9932,0.3975,-1.6310,0.8431,-1.0368,25.25508667,83.00594000,10.25841427,
5.0310,0.1720,0.6154,0.6904,-1.5401,-0.1067,2.6045,-1.6310,0.8431,-1.0368,25.25508667,83.00594000,10.25841427,
5.0330,-0.0419,0.6794,0.9816,-1.5401,-0.1067,2.6045,-1.6310,0.8431,-1.0368,25.25508667,83.00594000,10.25841427,
5.0950,-0.0419,0.6794,0.9816,-1.5401,-0.1067,2.6045,-0.6452,0.5896,-1.8051,25.25508667,83.00594000,10.25841427,
5.0990,-0.0419,0.6794,0.9816,-0.7588,0.6723,0.4141,-0.6452,0.5896,-1.8051,25.25508667,83.00594000,10.25841427,
5.1020,-0.0130,0.7004,0.8155,-0.7588,0.6723,0.4141,-0.6452,0.5896,-1.8051,25.25508667,83.00594000,10.25841427,
5.1610,-0.0130,0.7004,0.8155,-0.7588,0.6723,0.4141,0.3471,0.1964,-0.8583,25.25508667,83.00594000,10.25841427,
5.1640,-0.0130,0.7004,0.8155,-0.0406,0.4785,-1.1365,0.3471,0.1964,-0.8583,25.25508667,83.00594000,10.25841427,
5.1660,0.0150,0.6954,0.6474,-0.0406,0.4785,-1.1365,0.3471,0.1964,-0.8583,25.25508667,83.00594000,10.25841427,
5.2220,0.0150,0.6954,0.6474,-0.0406,0.4785,-1.1365,0.2175,0.0261,0.0453,25.25508667,83.00594000,10.25841427,
5.2240,0.0150,0.6954,0.6474,0.4442,0.3233,1.1739,0.2175,0.0261,0.0453,25.25506833,83.00605667,10.73144341,
5.2310,0.0900,0.6594,0.8916,0.4442,0.3233,1.1739,0.2175,0.0261,0.0453,25.25506833,83.00605667,10.73144341,
5.2900,0.0900,0.6594,0.8916,0.4442,0.3233,1.1739,-1.5188,0.1659,0.1674,25.25506833,83.00605667,10.73144341,
5.2920,0.0900,0.6594,0.8916,-0.3539,-0.3594,1.8244,-1.5188,0.1659,0.1674,25.25506833,83.00605667,10.73144341,
5.2950,-0.0169,0.5634,0.9866,-0.3539,-0.3594,1.8244,-1.5188,0.1659,0.1674,25.25506833,83.00605667,10.73144341,
5.3540,-0.0169,0.5634,0.9866,-0.3539,-0.3594,1.8244,0.5999,-0.1613,0.2293,25.25506833,83.00605667,10.73144341,
5.3560,-0.0169,0.5634,0.9866,0.1685,0.6518,-1.8040,0.5999,-0.1613,0.2293,25.25506833,83.00605667,10.73144341,
5.3610,0.0469,0.6754,0.6094,0.1685,0.6518,-1.8040,0.5999,-0.1613,0.2293,25.25506833,83.00605667,10.73144341,
5.4210,0.0469,0.6754,0.6094,0.1685,0.6518,-1.8040,0.8641,-0.1582,-0.0906,25.25506833,83.00605667,10.73144341,
5.4250,0.0469,0.6754,0.6094,-0.3353,0.0465,-0.7009,0.8641,-0.1582,-0.0906,25.25506833,83.00605667,10.73144341,
5.4280,0.0019,0.6594,0.6844,-0.3353,0.0465,-0.7009,0.8641,-0.1582,-0.0906,25.25506833,83.00605667,10.73144341,
5.4890,0.0019,0.6594,0.6844,-0.3353,0.0465,-0.7009,1.2778,-0.2294,0.1297,25.25506833,83.00605667,10.73144341,
5.4930,0.0019,0.6594,0.6844,0.1260,0.1733,-1.7482,1.2778,-0.2294,0.1297,25.25506833,83.00605667,10.73144341,
5.4940,-0.0250,0.6544,0.8906,0.1260,0.1733,-1.7482,1.2778,-0.2294,0.1297,25.25506833,83.00605667,10.73144341,
5.5530,-0.0250,0.6544,0.8906,0.1260,0.1733,-1.7482,-1.3459,0.1528,0.0476,25.25506833,83.00605667,10.73144341,
5.5560,-0.0250,0.6544,0.8906,0.8653,0.0070,-0.3255,-1.3459,0.1528,0.0476,25.25506833,83.00605667,10.73144341,
5.5610,0.1191,0.6454,0.7314,0.8653,0.0070,-0.3255,-1.3459,0.1528,0.0476,25.25506833,83.00605667,10.73144341,
5.6210,0.1191,0.6454,0.7314,0.8653,0.0070,-0.3255,-0.5062,0.0725,-0.2562,25.25506833,83.00605667,10.73144341,
5.6250,0.1191,0.6454,0.7314,-1.0635,-0.2240,3.1359,-0.5062,0.0725,-0.2562,25.25506833,83.00605667,10.73144341,
5.6270,-0.0770,0.6084,1.0957,-1.0635,-0.2240,3.1359,-0.5062,0.0725,-0.2562,25.25506833,83.00605667,10.73144341,
5.6860,-0.0770,0.6084,1.0957,-1.0635,-0.2240,3.1359,0.6394,-0.0334,-0.4375,25.25506833,83.00605667,10.73144341,
5.6920,-0.0770,0.6084,1.0957,-0.2858,0.9938,-3.1952,0.6394,-0.0334,-0.4375,25.25506833,83.00605667,10.73144341,
5.6950,-0.0910,0.7424,0.5804,-0.2858,0.9938,-3.1952,0.6394,-0.0334,-0.4375,25.25506833,83.00605667,10.73144341,
5.7500,-0.0910,0.7424,0.5804,-0.2858,0.9938,-3.1952,0.5037,0.0254,-0.5939,25.25506833,83.00605667,10.73144341,
5.7540,-0.0910,0.7424,0.5804,0.1015,-0.2600,0.4603,0.5037,0.0254,-0.5939,25.25506833,83.00605667,10.73144341,
5.7570,0.0680,0.6454,0.6284,0.1015,-0.2600,0.4603,0.5037,0.0254,-0.5939,25.25506833,83.00605667,10.73144341,
5.8170,0.0680,0.6454,0.6284,0.1015,-0.2600,0.4603,0.3232,-0.1165,0.7087,25.25506833,83.00605667,10.73144341,
5.8210,0.0680,0.6454,0.6284,0.3205,-0.3177,1.6847,0.3232,-0.1165,0.7087,25.25506833,83.00605667,10.73144341,
5.8230,0.0469,0.6564,0.8976,0.3205,-0.3177,1.6847,0.3232,-0.1165,0.7087,25.25506833,83.00605667,10.73144341,
5.8840,0.0469,0.6564,0.8976,0.3205,-0.3177,1.6847,-1.0076,-0.0046,1.1513,25.25506833,83.00605667,10.73144341,
5.8880,0.0469,0.6564,0.8976,1.0434,-0.1713,0.3121,-1.0076,-0.0046,1.1513,25.25506833,83.00605667,10.73144341,
5.8910,0.1090,0.6594,0.7995,1.0434,-0.1713,0.3121,-1.0076,-0.0046,1.1513,25.25506833,83.00605667,10.73144341,
5.9500,0.1090,0.6594,0.7995,1.0434,-0.1713,0.3121,-0.6820,0.0593,0.2169,25.25506833,83.00605667,10.73144341,
5.9550,0.1090,0.6594,0.7995,-0.2785,-0.0681,1.9524,-0.6820,0.0593,0.2169,25.25506833,83.00605667,10.73144341,
5.9560,0.0530,0.5863,0.9627,-0.2785,-0.0681,1.9524,-0.6820,0.0593,0.2169,25.25506833,83.00605667,10.73144341,
6.0150,0.0530,0.5863,0.9627,-0.2785,-0.0681,1.9524,1.4068,-0.3034,-0.1413,25.25506833,83.00605667,10.73144341,
6.0180,0.0530,0.5863,0.9627,-0.8609,1.1274,-2.2022,1.4068,-0.3034,-0.1413,25.25506833,83.00605667,10.73144341,
6.0210,-0.0109,0.7505,0.5444,-0.8609,1.1274,-2.2022,1.4068,-0.3034,-0.1413,25.25506833,83.00605667,10.73144341,
6.0860,-0.0109,0.7505,0.5444,-0.8609,1.1274,-2.2022,-0.2136,0.0828,-0.3201,25.25506833,83.00605667,10.73144341,
6.0890,-0.0109,0.7505,0.5444,0.8384,0.2623,-2.0885,-0.2136,0.0828,-0.3201,25.25506833,83.00605667,10.73144341,
6.0930,0.0870,0.7885,0.4243,0.8384,0.2623,-2.0885,-0.2136,0.0828,-0.3201,25.25506833,83.00605667,10.73144341,
6.1480,0.0870,0.7885,0.4243,0.8384,0.2623,-2.0885,-0.2139,0.0601,-0.3310,25.25506833,83.00605667,10.73144341,
6.1500,0.0870,0.7885,0.4243,-0.4086,-0.0548,3.8248,-0.2139,0.0601,-0.3310,25.25506833,83.00605667,10.73144341,
6.1580,0.0860,0.6434,0.9827,-0.4086,-0.0548,3.8248,-0.2139,0.0601,-0.3310,25.25506833,83.00605667,10.73144341,
6.2120,0.0860,0.6434,0.9827,-0.4086,-0.0548,3.8248,-0.8699,0.1386,-0.1180,25.25506833,83.00605667,10.73144341,
6.2140,0.0860,0.6434,0.9827,-0.5686,0.0280,1.6213,-0.8699,0.1386,-0.1180,25.25504833,83.00616167,11.23123932,
6.2190,-0.0209,0.6194,0.9527,-0.5686,0.0280,1.6213,-0.8699,0.1386,-0.1180,25.25504833,83.00616167,11.23123932,
6.2800,-0.0209,0.6194,0.9527,-0.5686,0.0280,1.6213,0.4771,-0.0552,-0.1103,25.25504833,83.00616167,11.23123932,
6.2820,-0.0209,0.6194,0.9527,0.2775,0.7144,-2.4868,0.4771,-0.0552,-0.1103,25.25504833,83.00616167,11.23123932,
6.2850,0.0590,0.7074,0.5193,0.2775,0.7144,-2.4868,0.4771,-0.0552,-0.1103,25.25504833,83.00616167,11.23123932,
6.3450,0.0590,0.7074,0.5193,0.2775,0.7144,-2.4868,0.3767,-0.0544,-0.1364,25.25504833,83.00616167,11.23123932,
6.3480,0.0590,0.7074,0.5193,-0.2182,0.2722,-0.7235,0.3767,-0.0544,-0.1364,25.25504833,83.00616167,11.23123932,
6.3510,0.0180,0.7124,0.5594,-0.2182,0.2722,-0.7235,0.3767,-0.0544,-0.1364,25.25504833,83.00616167,11.23123932,
6.4100,0.0180,0.7124,0.5594,-0.2182,0.2722,-0.7235,0.6988,-0.0757,-0.0432,25.25504833,83.00616167,11.23123932,
6.4150,0.0180,0.7124,0.5594,0.4081,-0.5809,-0.0213,0.6988,-0.0757,-0.0432,25.25504833,83.00616167,11.23123932,
6.4180,0.1070,0.6534,0.6344,0.4081,-0.5809,-0.0213,0.6988,-0.0757,-0.0432,25.25504833,83.00616167,11.23123932,
6.4810,0.1070,0.6534,0.6344,0.4081,-0.5809,-0.0213,-0.3614,-0.0560,0.7676,25.25504833,83.00616167,11.23123932,
6.4860,0.1070,0.6534,0.6344,0.4258,-1.0013,2.1629,-0.3614,-0.0560,0.7676,25.25504833,83.00616167,11.23123932,
6.4890,0.1120,0.5894,0.9406,0.4258,-1.0013,2.1629,-0.3614,-0.0560,0.7676,25.25504833,83.00616167,11.23123932,
6.5430,0.1120,0.5894,0.9406,0.4258,-1.0013,2.1629,-0.5667,0.0357,0.5627,25.25504833,83.00616167,11.23123932,
6.5460,0.1120,0.5894,0.9406,0.4278,-0.1802,-0.7260,-0.5667,0.0357,0.5627,25.25504833,83.00616167,11.23123932,
6.5510,0.1370,0.6204,0.6904,0.4278,-0.1802,-0.7260,-0.5667,0.0357,0.5627,25.25504833,83.00616167,11.23123932,
6.6080,0.1370,0.6204,0.6904,0.4278,-0.1802,-0.7260,0.0800,-0.0301,-0.0126,25.25504833,83.00616167,11.23123932,
6.6120,0.1370,0.6204,0.6904,-0.3444,-0.3573,-0.3635,0.0800,-0.0301,-0.0126,25.25504833,83.00616167,11.23123932,
6.6150,0.1060,0.6254,0.5913,-0.3444,-0.3573,-0.3635,0.0800,-0.0301,-0.0126,25.25504833,83.00616167,11.23123932,
6.6770,0.1060,0.6254,0.5913,-0.3444,-0.3573,-0.3635,1.0229,-0.1520,-0.4394,25.25504833,83.00616167,11.23123932,
6.6820,0.1060,0.6254,0.5913,-0.6495,0.4292,-1.2014,1.0229,-0.1520,-0.4394,25.25504833,83.00616167,11.23123932,
6.6830,0.0080,0.7085,0.7214,-0.6495,0.4292,-1.2014,1.0229,-0.1520,-0.4394,25.25504833,83.00616167,11.23123932,
6.7410,0.0080,0.7085,0.7214,-0.6495,0.4292,-1.2014,-0.6594,0.1722,-0.5587,25.25504833,83.00616167,11.23123932,
6.7430,0.0080,0.7085,0.7214,0.0250,-0.5663,-0.0489,-0.6594,0.1722,-0.5587,25.25504833,83.00616167,11.23123932,
6.7470,0.0540,0.6144,0.7345,0.0250,-0.5663,-0.0489,-0.6594,0.1722,-0.5587,25.25504833,83.00616167,11.23123932,
6.8060,0.0540,0.6144,0.7345,0.0250,-0.5663,-0.0489,0.6286,-0.0712,-0.0967,25.25504833,83.00616167,11.23123932,
6.8120,0.0540,0.6144,0.7345,-0.2942,-0.2996,0.1216,0.6286,-0.0712,-0.0967,25.25504833,83.00616167,11.23123932,
6.8140,0.0240,0.6304,0.7705,-0.2942,-0.2996,0.1216,0.6286,-0.0712,-0.0967,25.25504833,83.00616167,11.23123932,
6.8740,0.0240,0.6304,0.7705,-0.2942,-0.2996,0.1216,0.3546,-0.0655,0.1530,25.25504833,83.00616167,11.23123932,
6.8780,0.0240,0.6304,0.7705,0.4774,-0.1559,-1.7338,0.3546,-0.0655,0.1530,25.25504833,83.00616167,11.23123932,
6.8830,0.0720,0.7685,0.3833,0.4774,-0.1559,-1.7338,0.3546,-0.0655,0.1530,25.25504833,83.00616167,11.23123932,
6.9390,0.0720,0.7685,0.3833,0.4774,-0.1559,-1.7338,-0.1311,0.0500,-0.3605,25.25504833,83.00616167,11.23123932,
6.9420,0.0720,0.7685,0.3833,-0.4567,-0.3261,2.1875,-0.1311,0.0500,-0.3605,25.25504833,83.00616167,11.23123932,
6.9450,0.0200,0.6554,0.9086,-0.4567,-0.3261,2.1875,-0.1311,0.0500,-0.3605,25.25504833,83.00616167,11.23123932,
7.0050,0.0200,0.6554,0.9086,-0.4567,-0.3261,2.1875,-0.7865,0.1682,-0.3691,25.25504833,83.00616167,11.23123932,
7.0110,0.0200,0.6554,0.9086,-0.5960,0.2637,2.1144,-0.7865,0.1682,-0.3691,25.25504833,83.00616167,11.23123932,
7.0130,-0.0369,0.7045,0.9516,-0.5960,0.2637,2.1144,-0.7865,0.1682,-0.3691,25.25504833,83.00616167,11.23123932,
7.0730,-0.0369,0.7045,0.9516,-0.5960,0.2637,2.1144,-0.8163,0.0590,0.2729,25.25504833,83.00616167,11.23123932,
7.0750,-0.0369,0.7045,0.9516,0.6663,-0.3918,-0.2946,-0.8163,0.0590,0.2729,25.25504833,83.00616167,11.23123932,
7.0780,0.0970,0.6264,0.5373,0.6663,-0.3918,-0.2946,-0.8163,0.0590,0.2729,25.25504833,83.00616167,11.23123932,
7.1420,0.0970,0.6264,0.5373,0.6663,-0.3918,-0.2946,0.9328,-0.1629,0.4086,25.25504833,83.00616167,11.23123932,
7.1450,0.0970,0.6264,0.5373,0.0672,0.2877,-0.6168,0.9328,-0.1629,0.4086,25.25504833,83.00616167,11.23123932,
7.1470,0.0830,0.6724,0.7405,0.0672,0.2877,-0.6168,0.9328,-0.1629,0.4086,25.25504833,83.00616167,11.23123932,
7.2020,0.0830,0.6724,0.7405,0.0672,0.2877,-0.6168,0.3004,-0.0739,0.4618,25.25504833,83.00616167,11.23123932,
7.2050,0.0830,0.6724,0.7405,0.2029,-0.1397,0.8193,0.3004,-0.0739,0.4618,25.25500833,83.00626500,11.60750103,
7.2210,0.1451,0.6654,0.7095,0.2029,-0.1397,0.8193,0.3004,-0.0739,0.4618,25.25500833,83.00626500,11.60750103,
7.2710,0.1451,0.6654,0.7095,0.2029,-0.1397,0.8193,-0.2053,0.0549,0.2377,25.25500833,83.00626500,11.60750103,
7.2730,0.1451,0.6654,0.7095,-0.3327,-0.3098,1.2771,-0.2053,0.0549,0.2377,25.25500833,83.00626500,11.60750103,
7.2760,0.0630,0.6284,0.8165,-0.3327,-0.3098,1.2771,-0.2053,0.0549,0.2377,25.25500833,83.00626500,11.60750103,
7.3340,0.0630,0.6284,0.8165,-0.3327,-0.3098,1.2771,-0.0436,0.0796,-0.0660,25.25500833,83.00626500,11.60750103,
7.3360,0.0630,0.6284,0.8165,-0.2098,0.2982,-0.5738,-0.0436,0.0796,-0.0660,25.25500833,83.00626500,11.60750103,
7.3410,0.0360,0.6985,0.7895,-0.2098,0.2982,-0.5738,-0.0436,0.0796,-0.0660,25.25500833,83.00626500,11.60750103,
7.4100,0.0360,0.6985,0.7895,-0.2098,0.2982,-0.5738,-0.9063,0.2670,-0.4097,25.25500833,83.00626500,11.60750103,
7.4210,0.0360,0.6985,0.7895,-0.5751,-0.4169,2.4912,-0.9063,0.2670,-0.4097,25.25500833,83.00626500,11.60750103,
7.4250,0.0059,0.5934,0.9136,-0.5751,-0.4169,2.4912,-0.9063,0.2670,-0.4097,25.25500833,83.00626500,11.60750103,
7.4710,0.0059,0.5934,0.9136,-0.5751,-0.4169,2.4912,0.2439,0.0785,-0.6732,25.25500833,83.00626500,11.60750103,
7.4740,0.0059,0.5934,0.9136,-0.6879,-0.1706,-0.5493,0.2439,0.0785,-0.6732,25.25500833,83.00626500,11.60750103,
7.4760,-0.0150,0.6204,0.6604,-0.6879,-0.1706,-0.5493,0.2439,0.0785,-0.6732,25.25500833,83.00626500,11.60750103,
7.5320,-0.0150,0.6204,0.6604,-0.6879,-0.1706,-0.5493,1.3772,-0.1186,-0.1751,25.25500833,83.00626500,11.60750103,
7.5350,-0.0150,0.6204,0.6604,0.3571,0.0463,-3.3879,1.3772,-0.1186,-0.1751,25.25500833,83.00626500,11.60750103,
7.5400,0.0670,0.6794,0.4333,0.3571,0.0463,-3.3879,1.3772,-0.1186,-0.1751,25.25500833,83.00626500,11.60750103,
7.5990,0.0670,0.6794,0.4333,0.3571,0.0463,-3.3879,0.1138,-0.0695,0.4624,25.25500833,83.00626500,11.60750103,
7.6020,0.0670,0.6794,0.4333,0.3394,-1.0012,1.2452,0.1138,-0.0695,0.4624,25.25500833,83.00626500,11.60750103,
7.6050,0.0310,0.5844,1.0427,0.3394,-1.0012,1.2452,0.1138,-0.0695,0.4624,25.25500833,83.00626500,11.60750103,
7.6670,0.0310,0.5844,1.0427,0.3394,-1.0012,1.2452,-1.5072,0.2189,-0.1104,25.25500833,83.00626500,11.60750103,
7.6720,0.0310,0.5844,1.0427,0.1901,0.5344,-1.9520,-1.5072,0.2189,-0.1104,25.25500833,83.00626500,11.60750103,
7.6730,0.0410,0.6714,0.5884,0.1901,0.5344,-1.9520,-1.5072,0.2189,-0.1104,25.25500833,83.00626500,11.60750103,
7.7300,0.0410,0.6714,0.5884,0.1901,0.5344,-1.9520,0.2446,0.0210,-0.3617,25.25500833,83.00626500,11.60750103,
7.7330,0.0410,0.6714,0.5884,-0.1289,0.3549,0.1997,0.2446,0.0210,-0.3617,25.25500833,83.00626500,11.60750103,
7.7370,-0.0760,0.6854,0.8376,-0.1289,0.3549,0.1997,0.2446,0.0210,-0.3617,25.25500833,83.00626500,11.60750103,
7.7980,-0.0760,0.6854,0.8376,-0.1289,0.3549,0.1997,0.0072,0.0758,-0.5610,25.25500833,83.00626500,11.60750103,
7.8000,-0.0760,0.6854,0.8376,0.0196,0.2160,-0.6737,0.0072,0.0758,-0.5610,25.25500833,83.00626500,11.60750103,
7.8040,-0.0300,0.6964,0.6114,0.0196,0.2160,-0.6737,0.0072,0.0758,-0.5610,25.25500833,83.00626500,11.60750103,
7.8640,-0.0300,0.6964,0.6114,0.0196,0.2160,-0.6737,-0.5837,-0.0067,0.2203,25.25500833,83.00626500,11.60750103,
7.8670,-0.0300,0.6964,0.6114,1.3814,-0.5266,-0.1318,-0.5837,-0.0067,0.2203,25.25500833,83.00626500,11.60750103,
7.8710,0.1150,0.5763,0.7635,1.3814,-0.5266,-0.1318,-0.5837,-0.0067,0.2203,25.25500833,83.00626500,11.60750103,
7.9290,0.1150,0.5763,0.7635,1.3814,-0.5266,-0.1318,1.2458,-0.2787,1.0488,25.25500833,83.00626500,11.60750103,
7.9330,0.1150,0.5763,0.7635,0.6664,0.1155,-1.7912,1.2458,-0.2787,1.0488,25.25500833,83.00626500,11.60750103,
7.9360,0.1410,0.6094,0.7745,0.6664,0.1155,-1.7912,1.2458,-0.2787,1.0488,25.25500833,83.00626500,11.60750103,
7.9950,0.1410,0.6094,0.7745,0.6664,0.1155,-1.7912,-1.2272,0.0768,1.0963,25.25500833,83.00626500,11.60750103,
7.9990,0.1410,0.6094,0.7745,0.4124,-1.0305,2.6725,-1.2272,0.0768,1.0963,25.25500833,83.00626500,11.60750103,
8.0020,0.1160,0.5603,0.9966,0.4124,-1.0305,2.6725,-1.2272,0.0768,1.0963,25.25500833,83.00626500,11.60750103,
8.0630,0.1160,0.5603,0.9966,0.4124,-1.0305,2.6725,-0.3426,0.0216,0.1572,25.25500833,83.00626500,11.60750103,
8.0660,0.1160,0.5603,0.9966,-0.5191,0.4918,-0.6646,-0.3426,0.0216,0.1572,25.25500833,83.00626500,11.60750103,
8.0710,0.0450,0.6414,0.7335,-0.5191,0.4918,-0.6646,-0.3426,0.0216,0.1572,25.25500833,83.00626500,11.60750103,
8.1450,0.0450,0.6414,0.7335,-0.5191,0.4918,-0.6646,0.0815,0.1071,-0.8127,25.25500833,83.00626500,11.60750103,
8.1470,0.0450,0.6414,0.7335,-0.4513,0.1841,-1.2133,0.0815,0.1071,-0.8127,25.25500833,83.00626500,11.60750103,
8.1510,0.0180,0.6214,0.6724,-0.4513,0.1841,-1.2133,0.0815,0.1071,-0.8127,25.25500833,83.00626500,11.60750103,
8.1920,0.0180,0.6214,0.6724,-0.4513,0.1841,-1.2133,1.0170,0.0063,-1.1920,25.25500833,83.00626500,11.60750103,
8.1940,0.0180,0.6214,0.6724,-1.0925,0.3742,0.6683,1.0170,0.0063,-1.1920,25.25497333,83.00636500,12.15825367,
8.1990,-0.0870,0.6173,0.9596,-1.0925,0.3742,0.6683,1.0170,0.0063,-1.1920,25.25497333,83.00636500,12.15825367,
8.2610,-0.0870,0.6173,0.9596,-1.0925,0.3742,0.6683,-0.4860,0.1485,-0.8611,25.25497333,83.00636500,12.15825367,
8.2630,-0.0870,0.6173,0.9596,-0.3038,-0.1309,0.1590,-0.4860,0.1485,-0.8611,25.25497333,83.00636500,12.15825367,
8.2650,-0.0610,0.6234,0.7876,-0.3038,-0.1309,0.1590,-0.4860,0.1485,-0.8611,25.25497333,83.00636500,12.15825367,
8.3250,-0.0610,0.6234,0.7876,-0.3038,-0.1309,0.1590,-0.0056,0.0027,-0.0477,25.25497333,83.00636500,12.15825367,
8.3280,-0.0610,0.6234,0.7876,0.6227,-0.1616,-1.2688,-0.0056,0.0027,-0.0477,25.25497333,83.00636500,12.15825367,
8.3310,0.0250,0.6154,0.6454,0.6227,-0.1616,-1.2688,-0.0056,0.0027,-0.0477,25.25497333,83.00636500,12.15825367,
8.3900,0.0250,0.6154,0.6454,0.6227,-0.1616,-1.2688,0.1780,-0.0582,0.5282,25.25497333,83.00636500,12.15825367,
8.3920,0.0250,0.6154,0.6454,0.2043,-0.3284,0.4913,0.1780,-0.0582,0.5282,25.25497333,83.00636500,12.15825367,
8.3970,0.0460,0.6484,0.6804,0.2043,-0.3284,0.4913,0.1780,-0.0582,0.5282,25.25497333,83.00636500,12.15825367,
8.4590,0.0460,0.6484,0.6804,0.2043,-0.3284,0.4913,0.5345,-0.0947,0.7024,25.25497333,83.00636500,12.15825367,
8.4630,0.0460,0.6484,0.6804,0.4069,-0.1980,-0.5170,0.5345,-0.0947,0.7024,25.25497333,83.00636500,12.15825367,
8.4640,0.0620,0.6424,0.7264,0.4069,-0.1980,-0.5170,0.5345,-0.0947,0.7024,25.25497333,83.00636500,12.15825367,
8.5220,0.0620,0.6424,0.7264,0.4069,-0.1980,-0.5170,0.1880,-0.0370,0.5067,25.25497333,83.00636500,12.15825367,
8.5250,0.0620,0.6424,0.7264,-0.0885,0.2329,0.7369,0.1880,-0.0370,0.5067,25.25497333,83.00636500,12.15825367,
8.5300,0.0440,0.7024,0.8086,-0.0885,0.2329,0.7369,0.1880,-0.0370,0.5067,25.25497333,83.00636500,12.15825367,
8.5900,0.0440,0.7024,0.8086,-0.0885,0.2329,0.7369,-0.5024,0.1227,-0.0215,25.25497333,83.00636500,12.15825367,
8.5930,0.0440,0.7024,0.8086,-0.3091,0.1760,2.2598,-0.5024,0.1227,-0.0215,25.25497333,83.00636500,12.15825367,
8.5980,0.0069,0.6864,0.9327,-0.3091,0.1760,2.2598,-0.5024,0.1227,-0.0215,25.25497333,83.00636500,12.15825367,
8.6570,0.0069,0.6864,0.9327,-0.3091,0.1760,2.2598,-0.7642,0.1159,-0.1959,25.25497333,83.00636500,12.15825367,
8.6630,0.0069,0.6864,0.9327,-0.3368,0.2061,2.3523,-0.7642,0.1159,-0.1959,25.25497333,83.00636500,12.15825367,
8.6640,-0.0080,0.6354,1.0587,-0.3368,0.2061,2.3523,-0.7642,0.1159,-0.1959,25.25497333,83.00636500,12.15825367,
8.7200,-0.0080,0.6354,1.0587,-0.3368,0.2061,2.3523,-0.5269,0.1034,-0.2912,25.25497333,83.00636500,12.15825367,
8.7260,-0.0080,0.6354,1.0587,-0.2300,0.5285,0.1564,-0.5269,0.1034,-0.2912,25.25497333,83.00636500,12.15825367,
8.7300,-0.0219,0.6494,0.7855,-0.2300,0.5285,0.1564,-0.5269,0.1034,-0.2912,25.25497333,83.00636500,12.15825367,
8.7880,-0.0219,0.6494,0.7855,-0.2300,0.5285,0.1564,0.5950,-0.0329,-0.3872,25.25497333,83.00636500,12.15825367,
8.7900,-0.0219,0.6494,0.7855,0.0239,0.4454,-2.3238,0.5950,-0.0329,-0.3872,25.25497333,83.00636500,12.15825367,
8.7940,0.0000,0.6564,0.5553,0.0239,0.4454,-2.3238,0.5950,-0.0329,-0.3872,25.25497333,83.00636500,12.15825367,
8.8540,0.0000,0.6564,0.5553,0.0239,0.4454,-2.3238,0.5590,-0.0763,-0.1301,25.25497333,83.00636500,12.15825367,
8.8590,0.0000,0.6564,0.5553,-0.1359,-0.5553,-0.2012,0.5590,-0.0763,-0.1301,25.25497333,83.00636500,12.15825367,
8.8630,0.0250,0.5794,0.6864,-0.1359,-0.5553,-0.2012,0.5590,-0.0763,-0.1301,25.25497333,83.00636500,12.15825367,
8.9200,0.0250,0.5794,0.6864,-0.1359,-0.5553,-0.2012,0.0234,-0.0261,-0.0085,25.25497333,83.00636500,12.15825367,
8.9240,0.0250,0.5794,0.6864,-0.0761,-0.6239,-0.3685,0.0234,-0.0261,-0.0085,25.25497333,83.00636500,12.15825367,
8.9270,-0.0019,0.5923,0.7385,-0.0761,-0.6239,-0.3685,0.0234,-0.0261,-0.0085,25.25497333,83.00636500,12.15825367,
8.9840,-0.0019,0.5923,0.7385,-0.0761,-0.6239,-0.3685,-0.0737,0.0210,-0.3004,25.25497333,83.00636500,12.15825367,
8.9890,-0.0019,0.5923,0.7385,-0.8802,0.0695,0.7820,-0.0737,0.0210,-0.3004,25.25497333,83.00636500,12.15825367,
8.9920,-0.0960,0.6594,0.8386,-0.8802,0.0695,0.7820,-0.0737,0.0210,-0.3004,25.25497333,83.00636500,12.15825367,
9.0530,-0.0960,0.6594,0.8386,-0.8802,0.0695,0.7820,-0.4409,0.0818,-0.6040,25.25497333,83.00636500,12.15825367,
9.0610,-0.0960,0.6594,0.8386,0.1435,0.2611,-0.9915,-0.4409,0.0818,-0.6040,25.25497333,83.00636500,12.15825367,
9.0620,-0.0590,0.6824,0.6924,0.1435,0.2611,-0.9915,-0.4409,0.0818,-0.6040,25.25497333,83.00636500,12.15825367,
9.1160,-0.0590,0.6824,0.6924,0.1435,0.2611,-0.9915,-0.0557,-0.0103,-0.1682,25.25497333,83.00636500,12.15825367,
9.1180,-0.0590,0.6824,0.6924,0.0683,-0.1059,0.4394,-0.0557,-0.0103,-0.1682,25.25497333,83.00636500,12.15825367,
9.1230,0.0140,0.6694,0.6444,0.0683,-0.1059,0.4394,-0.0557,-0.0103,-0.1682,25.25497333,83.00636500,12.15825367,
9.1840,0.0140,0.6694,0.6444,0.0683,-0.1059,0.4394,0.5587,-0.0976,0.5954,25.25497333,83.00636500,12.15825367,
9.1860,0.0140,0.6694,0.6444,0.8583,-0.3931,-0.2828,0.5587,-0.0976,0.5954,25.25497333,83.00636500,12.15825367,
9.2030,0.0690,0.6284,0.7155,0.8583,-0.3931,-0.2828,0.5587,-0.0976,0.5954,25.25497333,83.00636500,12.15825367,
9.2560,0.0419,0.6364,0.8486,0.8583,-0.3931,-0.2828,0.5587,-0.0976,0.5954,25.25494833,83.00649000,12.50054359,
9.2650,0.0419,0.6364,0.8486,0.8583,-0.3931,-0.2828,-0.2022,-0.0761,0.8981,25.25494833,83.00649000,12.50054359,
9.2660,0.0419,0.6364,0.8486,0.1360,-0.2288,0.9485,-0.2022,-0.0761,0.8981,25.25494833,83.00649000,12.50054359,
9.3140,0.0419,0.6364,0.8486,0.1360,-0.2288,0.9485,-0.1343,-0.0256,0.4279,25.25494833,83.00649000,12.50054359,
9.3160,0.0419,0.6364,0.8486,0.1479,0.2696,-0.5380,-0.1343,-0.0256,0.4279,25.25494833,83.00649000,12.50054359,
9.3210,0.0300,0.6724,0.7905,0.1479,0.2696,-0.5380,-0.1343,-0.0256,0.4279,25.25494833,83.00649000,12.50054359,
9.3800,0.0300,0.6724,0.7905,0.1479,0.2696,-0.5380,-0.3388,0.0967,-0.3596,25.25494833,83.00649000,12.50054359,
9.3820,0.0300,0.6724,0.7905,-0.3491,0.1822,-1.2708,-0.3388,0.0967,-0.3596,25.25494833,83.00649000,12.50054359,
9.3870,-0.0080,0.6434,0.6514,-0.3491,0.1822,-1.2708,-0.3388,0.0967,-0.3596,25.25494833,83.00649000,12.50054359,
9.4480,-0.0080,0.6434,0.6514,-0.3491,0.1822,-1.2708,0.0962,0.0470,-0.5613,25.25494833,83.00649000,12.50054359,
9.4520,-0.0080,0.6434,0.6514,-0.1680,-0.6259,-0.3132,0.0962,0.0470,-0.5613,25.25494833,83.00649000,12.50054359,
9.4530,-0.0130,0.5734,0.7395,-0.1680,-0.6259,-0.3132,0.0962,0.0470,-0.5613,25.25494833,83.00649000,12.50054359,
9.5120,-0.0130,0.5734,0.7395,-0.1680,-0.6259,-0.3132,0.9655,-0.0953,-0.0615,25.25494833,83.00649000,12.50054359,
9.5160,-0.0130,0.5734,0.7395,-0.2640,-0.1655,-0.9037,0.9655,-0.0953,-0.0615,25.25494833,83.00649000,12.50054359,
9.5210,0.0050,0.6004,0.8015,-0.2640,-0.1655,-0.9037,0.9655,-0.0953,-0.0615,25.25494833,83.00649000,12.50054359,
9.5790,0.0050,0.6004,0.8015,-0.2640,-0.1655,-0.9037,-0.4503,0.0073,0.3878,25.25494833,83.00649000,12.50054359,
9.5820,0.0050,0.6004,0.8015,0.4529,-0.4389,0.4674,-0.4503,0.0073,0.3878,25.25494833,83.00649000,12.50054359,
9.5880,0.0259,0.6123,0.8836,0.4529,-0.4389,0.4674,-0.4503,0.0073,0.3878,25.25494833,83.00649000,12.50054359,
9.6470,0.0259,0.6123,0.8836,0.4529,-0.4389,0.4674,-0.7940,0.0296,0.7553,25.25494833,83.00649000,12.50054359,
9.6530,0.0259,0.6123,0.8836,0.8033,0.3835,-0.6779,-0.7940,0.0296,0.7553,25.25494833,83.00649000,12.50054359,
9.6550,0.1241,0.6484,0.7235,0.8033,0.3835,-0.6779,-0.7940,0.0296,0.7553,25.25494833,83.00649000,12.50054359,
9.7110,0.1241,0.6484,0.7235,0.8033,0.3835,-0.6779,-0.0509,-0.0214,0.1023,25.25494833,83.00649000,12.50054359,
9.7130,0.1241,0.6484,0.7235,-0.1639,0.7289,-0.5902,-0.0509,-0.0214,0.1023,25.25494833,83.00649000,12.50054359,
9.7170,0.0390,0.6824,0.7324,-0.1639,0.7289,-0.5902,-0.0509,-0.0214,0.1023,25.25494833,83.00649000,12.50054359,
9.7770,0.0390,0.6824,0.7324,-0.1639,0.7289,-0.5902,0.0629,0.0640,-0.6079,25.25494833,83.00649000,12.50054359,
9.7790,0.0390,0.6824,0.7324,-0.8472,0.1698,1.2985,0.0629,0.0640,-0.6079,25.25494833,83.00649000,12.50054359,
9.7830,-0.0340,0.6334,0.7905,-0.8472,0.1698,1.2985,0.0629,0.0640,-0.6079,25.25494833,83.00649000,12.50054359,
9.8450,-0.0340,0.6334,0.7905,-0.8472,0.1698,1.2985,0.5577,-0.0226,-0.6329,25.25494833,83.00649000,12.50054359,
9.8490,-0.0340,0.6334,0.7905,0.2448,-0.0648,-0.6867,0.5577,-0.0226,-0.6329,25.25494833,83.00649000,12.50054359,
9.8520,0.0269,0.6424,0.6914,0.2448,-0.0648,-0.6867,0.5577,-0.0226,-0.6329,25.25494833,83.00649000,12.50054359,
9.9080,0.0269,0.6424,0.6914,0.2448,-0.0648,-0.6867,-0.1560,-0.0044,-0.2367,25.25494833,83.00649000,12.50054359,
9.9110,0.0269,0.6424,0.6914,-0.2482,-0.6136,0.2260,-0.1560,-0.0044,-0.2367,25.25494833,83.00649000,12.50054359,
9.9150,-0.0300,0.5854,0.7855,-0.2482,-0.6136,0.2260,-0.1560,-0.0044,-0.2367,25.25494833,83.00649000,12.50054359,
9.9750,-0.0300,0.5854,0.7855,-0.2482,-0.6136,0.2260,0.2090,-0.0097,-0.2137,25.25494833,83.00649000,12.50054359,
9.9890,-0.0300,0.5854,0.7855,-0.1826,-0.1359,-0.1689,0.2090,-0.0097,-0.2137,25.25494833,83.00649000,12.50054359,
9.9920,-0.0540,0.5963,0.9166,-0.1826,-0.1359,-0.1689,0.2090,-0.0097,-0.2137,25.25494833,83.00649000,12.50054359,
10.0420,-0.0540,0.5963,0.9166,-0.1826,-0.1359,-0.1689,-0.7759,-0.0127,0.2301,25.25494833,83.00649000,12.50054359,
10.0440,-0.0540,0.5963,0.9166,0.2611,-0.0265,-0.9394,-0.7759,-0.0127,0.2301,25.25494833,83.00649000,12.50054359,
10.0610,0.0130,0.6084,0.6964,0.2611,-0.0265,-0.9394,-0.7759,-0.0127,0.2301,25.25494833,83.00649000,12.50054359,
10.1070,0.0130,0.6084,0.6964,0.2611,-0.0265,-0.9394,0.3501,-0.0984,0.3247,25.25494833,83.00649000,12.50054359,
10.1090,0.0130,0.6084,0.6964,0.5787,0.0712,-1.1806,0.3501,-0.0984,0.3247,25.25494833,83.00649000,12.50054359,
10.1150,0.0600,0.6354,0.6585,0.5787,0.0712,-1.1806,0.3501,-0.0984,0.3247,25.25494833,83.00649000,12.50054359,
10.1720,0.0600,0.6354,0.6585,0.5787,0.0712,-1.1806,0.1390,-0.0712,0.2231,25.25494833,83.00649000,12.50054359,
10.1740,0.0600,0.6354,0.6585,0.5356,0.3765,0.1962,0.1390,-0.0712,0.2231,25.25491333,83.00661667,12.18604851,
10.1810,0.1831,0.6304,0.6223,0.5356,0.3765,0.1962,0.1390,-0.0712,0.2231,25.25491333,83.00661667,12.18604851,
10.2400,0.1831,0.6304,0.6223,0.5356,0.3765,0.1962,0.4535,-0.3598,1.6131,25.25491333,83.00661667,12.18604851,
10.2430,0.1831,0.6304,0.6223,0.9537,-0.9268,1.2601,0.4535,-0.3598,1.6131,25.25491333,83.00661667,12.18604851,
10.2450,0.2061,0.5634,0.8746,0.9537,-0.9268,1.2601,0.4535,-0.3598,1.6131,25.25491333,83.00661667,12.18604851,
10.3050,0.2061,0.5634,0.8746,0.9537,-0.9268,1.2601,-0.9350,0.1508,0.2483,25.25491333,83.00661667,12.18604851,
10.3080,0.2061,0.5634,0.8746,-0.5117,0.1172,1.6290,-0.9350,0.1508,0.2483,25.25491333,83.00661667,12.18604851,
10.3110,0.0569,0.6844,0.7905,-0.5117,0.1172,1.6290,-0.9350,0.1508,0.2483,25.25491333,83.00661667,12.18604851,
10.3700,0.0569,0.6844,0.7905,-0.5117,0.1172,1.6290,-0.1344,0.1695,-0.7865,25.25491333,83.00661667,12.18604851,
10.3730,0.0569,0.6844,0.7905,-0.3051,0.6359,-0.8954,-0.1344,0.1695,-0.7865,25.25491333,83.00661667,12.18604851,
10.3780,0.0540,0.6694,0.7014,-0.3051,0.6359,-0.8954,-0.1344,0.1695,-0.7865,25.25491333,83.00661667,12.18604851,
10.4410,0.0540,0.6694,0.7014,-0.3051,0.6359,-0.8954,0.3403,0.0330,-0.5001,25.25491333,83.00661667,12.18604851,
10.4460,0.0540,0.6694,0.7014,-0.1005,-0.4947,1.7434,0.3403,0.0330,-0.5001,25.25491333,83.00661667,12.18604851,
10.4490,0.0710,0.6023,0.8346,-0.1005,-0.4947,1.7434,0.3403,0.0330,-0.5001,25.25491333,83.00661667,12.18604851,
10.5060,0.0710,0.6023,0.8346,-0.1005,-0.4947,1.7434,0.5111,-0.0503,0.0287,25.25491333,83.00661667,12.18604851,
10.5160,0.0710,0.6023,0.8346,-0.0066,0.5899,-1.2630,0.5111,-0.0503,0.0287,25.25491333,83.00661667,12.18604851,
10.5190,0.0240,0.6914,0.7035,-0.0066,0.5899,-1.2630,0.5111,-0.0503,0.0287,25.25491333,83.00661667,12.18604851,
10.5690,0.0240,0.6914,0.7035,-0.0066,0.5899,-1.2630,0.3378,-0.0649,-0.0474,25.25491333,83.00661667,12.18604851,
10.5730,0.0240,0.6914,0.7035,0.0931,-0.5874,-0.5611,0.3378,-0.0649,-0.0474,25.25491333,83.00661667,12.18604851,
10.5750,0.1090,0.6134,0.6785,0.0931,-0.5874,-0.5611,0.3378,-0.0649,-0.0474,25.25491333,83.00661667,12.18604851,
10.6370,0.1090,0.6134,0.6785,0.0931,-0.5874,-0.5611,0.0613,0.0406,-0.1207,25.25491333,83.00661667,12.18604851,
10.6430,0.1090,0.6134,0.6785,-1.0286,0.0555,0.6616,0.0613,0.0406,-0.1207,25.25491333,83.00661667,12.18604851,
10.6450,-0.0259,0.6804,0.7865,-1.0286,0.0555,0.6616,0.0613,0.0406,-0.1207,25.25491333,83.00661667,12.18604851,
10.7010,-0.0259,0.6804,0.7865,-1.0286,0.0555,0.6616,0.2344,0.0668,-0.4626,25.25491333,83.00661667,12.18604851,
10.7060,-0.0259,0.6804,0.7865,-0.3157,0.4179,-0.4307,0.2344,0.0668,-0.4626,25.25491333,83.00661667,12.18604851,
10.7100,-0.0450,0.6864,0.8476,-0.3157,0.4179,-0.4307,0.2344,0.0668,-0.4626,25.25491333,83.00661667,12.18604851,
10.7670,-0.0450,0.6864,0.8476,-0.3157,0.4179,-0.4307,-0.4869,0.1660,-0.5056,25.25491333,83.00661667,12.18604851,
10.7710,-0.0450,0.6864,0.8476,-0.0547,-0.0715,-0.7407,-0.4869,0.1660,-0.5056,25.25491333,83.00661667,12.18604851,
10.7750,0.0640,0.6735,0.5744,-0.0547,-0.0715,-0.7407,-0.4869,0.1660,-0.5056,25.25491333,83.00661667,12.18604851,
10.8340,0.0640,0.6735,0.5744,-0.0547,-0.0715,-0.7407,-0.0633,-0.0283,0.5906,25.25491333,83.00661667,12.18604851,
10.8390,0.0640,0.6735,0.5744,0.6860,-0.8917,1.1744,-0.0633,-0.0283,0.5906,25.25491333,83.00661667,12.18604851,
10.8420,0.0960,0.5823,0.8596,0.6860,-0.8917,1.1744,-0.0633,-0.0283,0.5906,25.25491333,83.00661667,12.18604851,
10.8990,0.0960,0.5823,0.8596,0.6860,-0.8917,1.1744,0.7072,-0.1642,0.8309,25.25491333,83.00661667,12.18604851,
10.9030,0.0960,0.5823,0.8596,0.3995,0.5427,-2.1852,0.7072,-0.1642,0.8309,25.25491333,83.00661667,12.18604851,
10.9050,0.0981,0.7364,0.7765,0.3995,0.5427,-2.1852,0.7072,-0.1642,0.8309,25.25491333,83.00661667,12.18604851,
10.9650,0.0981,0.7364,0.7765,0.3995,0.5427,-2.1852,-0.4723,0.1391,0.1738,25.25491333,83.00661667,12.18604851,
10.9680,0.0981,0.7364,0.7765,-0.0915,0.4907,2.4782,-0.4723,0.1391,0.1738,25.25491333,83.00661667,12.18604851,
10.9710,0.0600,0.7264,1.1007,-0.0915,0.4907,2.4782,-0.4723,0.1391,0.1738,25.25491333,83.00661667,12.18604851,
11.0330,0.0600,0.7264,1.1007,-0.0915,0.4907,2.4782,-1.9507,0.3733,0.1130,25.25491333,83.00661667,12.18604851,
11.0380,0.0600,0.7264,1.1007,0.6682,-0.9724,2.0287,-1.9507,0.3733,0.1130,25.25491333,83.00661667,12.18604851,
11.0530,0.1320,0.4853,1.0166,0.6682,-0.9724,2.0287,-1.9507,0.3733,0.1130,25.25491333,83.00661667,12.18604851,
11.0990,0.1320,0.4853,1.0166,0.6682,-0.9724,2.0287,0.2901,-0.2433,0.6690,25.25491333,83.00661667,12.18604851,
11.1050,0.1320,0.4853,1.0166,0.5996,0.6657,-3.8368,0.2901,-0.2433,0.6690,25.25491333,83.00661667,12.18604851,
11.1060,-0.0280,0.6304,0.6324,0.5996,0.6657,-3.8368,0.2901,-0.2433,0.6690,25.25491333,83.00661667,12.18604851,
11.1640,-0.0280,0.6304,0.6324,0.5996,0.6657,-3.8368,0.3335,-0.0312,-0.4132,25.25491333,83.00661667,12.18604851,
11.1660,-0.0280,0.6304,0.6324,0.0131,-0.6238,-1.3148,0.3335,-0.0312,-0.4132,25.25491333,83.00661667,12.18604851,
11.1720,0.0750,0.6694,0.4443,0.0131,-0.6238,-1.3148,0.3335,-0.0312,-0.4132,25.25491333,83.00661667,12.18604851,
11.2310,0.0750,0.6694,0.4443,0.0131,-0.6238,-1.3148,1.0723,-0.0679,-0.9168,25.25491333,83.00661667,12.18604851,
11.2340,0.0750,0.6694,0.4443,-1.0650,-0.6971,2.5482,1.0723,-0.0679,-0.9168,25.25487167,83.00673000,12.30237579,
11.2360,-0.0630,0.6173,0.9847,-1.0650,-0.6971,2.5482,1.0723,-0.0679,-0.9168,25.25487167,83.00673000,12.30237579,
11.2940,-0.0630,0.6173,0.9847,-1.0650,-0.6971,2.5482,-1.3719,0.2212,-0.7956,25.25487167,83.00673000,12.30237579,
11.2960,-0.0630,0.6173,0.9847,0.0488,-1.3392,1.1067,-1.3719,0.2212,-0.7956,25.25487167,83.00673000,12.30237579,
11.3010,0.0000,0.4893,0.8936,0.0488,-1.3392,1.1067,-1.3719,0.2212,-0.7956,25.25487167,83.00673000,12.30237579,
11.3600,0.0000,0.4893,0.8936,0.0488,-1.3392,1.1067,0.6941,-0.1375,0.1635,25.25487167,83.00673000,12.30237579,
11.3630,0.0000,0.4893,0.8936,0.1928,0.2470,-3.4250,0.6941,-0.1375,0.1635,25.25487167,83.00673000,12.30237579,
11.3670,-0.0200,0.6314,0.4863,0.1928,0.2470,-3.4250,0.6941,-0.1375,0.1635,25.25487167,83.00673000,12.30237579,
11.4280,-0.0200,0.6314,0.4863,0.1928,0.2470,-3.4250,0.9402,-0.1983,0.4848,25.25487167,83.00673000,12.30237579,
11.4300,-0.0200,0.6314,0.4863,0.9636,-0.9143,-2.0340,0.9402,-0.1983,0.4848,25.25487167,83.00673000,12.30237579,
11.4340,0.1601,0.6774,0.4043,0.9636,-0.9143,-2.0340,0.9402,-0.1983,0.4848,25.25487167,83.00673000,12.30237579,
11.4920,0.1601,0.6774,0.4043,0.9636,-0.9143,-2.0340,0.4469,-0.0934,0.2538,25.25487167,83.00673000,12.30237579,
11.4940,0.1601,0.6774,0.4043,-0.3367,-0.6751,2.3646,0.4469,-0.0934,0.2538,25.25487167,83.00673000,12.30237579,
11.4990,0.0319,0.6764,0.9056,-0.3367,-0.6751,2.3646,0.4469,-0.0934,0.2538,25.25487167,83.00673000,12.30237579,
11.5590,0.0319,0.6764,0.9056,-0.3367,-0.6751,2.3646,-1.8480,0.1438,0.1158,25.25487167,83.00673000,12.30237579,
11.5620,0.0319,0.6764,0.9056,-0.1747,0.5325,3.0183,-1.8480,0.1438,0.1158,25.25487167,83.00673000,12.30237579,
11.5650,-0.0419,0.7174,1.1768,-0.1747,0.5325,3.0183,-1.8480,0.1438,0.1158,25.25487167,83.00673000,12.30237579,
11.6260,-0.0419,0.7174,1.1768,-0.1747,0.5325,3.0183,-1.1476,0.2168,-0.3929,25.25487167,83.00673000,12.30237579,
11.6290,-0.0419,0.7174,1.1768,0.1052,0.7512,1.2174,-1.1476,0.2168,-0.3929,25.25487167,83.00673000,12.30237579,
11.6330,0.0510,0.6985,0.8866,0.1052,0.7512,1.2174,-1.1476,0.2168,-0.3929,25.25487167,83.00673000,12.30237579,
11.6910,0.0510,0.6985,0.8866,0.1052,0.7512,1.2174,-0.3138,0.2532,-0.2682,25.25487167,83.00673000,12.30237579,
11.6930,0.0510,0.6985,0.8866,-0.7484,1.1317,2.7052,-0.3138,0.2532,-0.2682,25.25487167,83.00673000,12.30237579,
11.6970,-0.0610,0.6284,1.0687,-0.7484,1.1317,2.7052,-0.3138,0.2532,-0.2682,25.25487167,83.00673000,12.30237579,
11.7570,-0.0610,0.6284,1.0687,-0.7484,1.1317,2.7052,0.7246,0.0199,0.0447,25.25487167,83.00673000,12.30237579,
11.7610,-0.0610,0.6284,1.0687,0.0385,0.7489,-2.7351,0.7246,0.0199,0.0447,25.25487167,83.00673000,12.30237579,
11.7630,0.0059,0.6674,0.5284,0.0385,0.7489,-2.7351,0.7246,0.0199,0.0447,25.25487167,83.00673000,12.30237579,
11.8240,0.0059,0.6674,0.5284,0.0385,0.7489,-2.7351,-0.2384,-0.0342,-0.0360,25.25487167,83.00673000,12.30237579,
11.8270,0.0059,0.6674,0.5284,0.7692,-0.8273,-1.0015,-0.2384,-0.0342,-0.0360,25.25487167,83.00673000,12.30237579,
11.8320,0.0860,0.5444,0.3352,0.7692,-0.8273,-1.0015,-0.2384,-0.0342,-0.0360,25.25487167,83.00673000,12.30237579,
11.8900,0.0860,0.5444,0.3352,0.7692,-0.8273,-1.0015,0.7635,-0.1991,-0.0662,25.25487167,83.00673000,12.30237579,
11.8930,0.0860,0.5444,0.3352,0.0405,-0.0290,0.4511,0.7635,-0.1991,-0.0662,25.25487167,83.00673000,12.30237579,
11.8960,0.1100,0.5784,0.7305,0.0405,-0.0290,0.4511,0.7635,-0.1991,-0.0662,25.25487167,83.00673000,12.30237579,
11.9540,0.1100,0.5784,0.7305,0.0405,-0.0290,0.4511,-0.3030,-0.7253,-0.5535,25.25487167,83.00673000,12.30237579,
11.9570,0.1100,0.5784,0.7305,-0.3504,0.0212,3.0416,-0.3030,-0.7253,-0.5535,25.25487167,83.00673000,12.30237579,
11.9610,0.0000,0.6434,1.0778,-0.3504,0.0212,3.0416,-0.3030,-0.7253,-0.5535,25.25487167,83.00673000,12.30237579,
12.0220,0.0000,0.6434,1.0778,-0.3504,0.0212,3.0416,-1.5739,-0.4982,-0.1553,25.25487167,83.00673000,12.30237579,
12.0270,0.0000,0.6434,1.0778,0.2871,-0.0682,2.7876,-1.5739,-0.4982,-0.1553,25.25487167,83.00673000,12.30237579,
12.0310,0.1020,0.5033,0.9606,0.2871,-0.0682,2.7876,-1.5739,-0.4982,-0.1553,25.25487167,83.00673000,12.30237579,
12.0860,0.1020,0.5033,0.9606,0.2871,-0.0682,2.7876,0.0211,0.2280,0.9376,25.25487167,83.00673000,12.30237579,
12.0880,0.1020,0.5033,0.9606,0.0997,0.5437,-2.1042,0.0211,0.2280,0.9376,25.25487167,83.00673000,12.30237579,
12.0950,0.0259,0.6254,0.6594,0.0997,0.5437,-2.1042,0.0211,0.2280,0.9376,25.25487167,83.00673000,12.30237579,
12.1530,0.0259,0.6254,0.6594,0.0997,0.5437,-2.1042,0.9533,0.3744,0.0529,25.25487167,83.00673000,12.30237579,
12.1550,0.0259,0.6254,0.6594,-0.0104,0.4577,-3.1031,0.9533,0.3744,0.0529,25.25487167,83.00673000,12.30237579,
12.1600,0.0500,0.6334,0.4923,-0.0104,0.4577,-3.1031,0.9533,0.3744,0.0529,25.25487167,83.00673000,12.30237579,
12.2200,0.0500,0.6334,0.4923,-0.0104,0.4577,-3.1031,0.9825,0.2342,-0.1774,25.25487167,83.00673000,12.30237579,
12.2230,0.0500,0.6334,0.4923,-0.4880,-0.2767,0.4112,0.9825,0.2342,-0.1774,25.25484333,83.00685167,12.38987827,
12.2250,-0.0140,0.6234,0.7035,-0.4880,-0.2767,0.4112,0.9825,0.2342,-0.1774,25.25484333,83.00685167,12.38987827,
12.2840,-0.0140,0.6234,0.7035,-0.4880,-0.2767,0.4112,0.2999,0.2325,-0.7451,25.25484333,83.00685167,12.38987827,
12.2860,-0.0140,0.6234,0.7035,-0.7889,0.3377,-0.1754,0.2999,0.2325,-0.7451,25.25484333,83.00685167,12.38987827,
12.2930,-0.1160,0.7135,0.7185,-0.7889,0.3377,-0.1754,0.2999,0.2325,-0.7451,25.25484333,83.00685167,12.38987827,
12.3500,-0.1160,0.7135,0.7185,-0.7889,0.3377,-0.1754,0.3690,0.0844,-0.4913,25.25484333,83.00685167,12.38987827,
12.3540,-0.1160,0.7135,0.7185,0.2837,-0.5684,-0.2775,0.3690,0.0844,-0.4913,25.25484333,83.00685167,12.38987827,
12.3570,-0.0250,0.6164,0.8026,0.2837,-0.5684,-0.2775,0.3690,0.0844,-0.4913,25.25484333,83.00685167,12.38987827,
12.4190,-0.0250,0.6164,0.8026,0.2837,-0.5684,-0.2775,-0.3399,-0.0206,0.4924,25.25484333,83.00685167,12.38987827,
12.4230,-0.0250,0.6164,0.8026,0.7561,-0.2433,-0.4811,-0.3399,-0.0206,0.4924,25.25484333,83.00685167,12.38987827,
12.4240,0.0540,0.6354,0.7024,0.7561,-0.2433,-0.4811,-0.3399,-0.0206,0.4924,25.25484333,83.00685167,12.38987827,
12.4820,0.0540,0.6354,0.7024,0.7561,-0.2433,-0.4811,-0.5330,-0.0398,0.5171,25.25484333,83.00685167,12.38987827,
12.4860,0.0540,0.6354,0.7024,0.3767,-0.0482,0.3494,-0.5330,-0.0398,0.5171,25.25484333,83.00685167,12.38987827,
12.4910,0.1010,0.6254,0.6635,0.3767,-0.0482,0.3494,-0.5330,-0.0398,0.5171,25.25484333,83.00685167,12.38987827,
12.5490,0.1010,0.6254,0.6635,0.3767,-0.0482,0.3494,0.2399,-0.1396,0.6886,25.25484333,83.00685167,12.38987827,
12.5540,0.1010,0.6254,0.6635,0.1606,-0.0100,0.2357,0.2399,-0.1396,0.6886,25.25484333,83.00685167,12.38987827,
12.5560,0.0620,0.6674,0.7114,0.1606,-0.0100,0.2357,0.2399,-0.1396,0.6886,25.25484333,83.00685167,12.38987827,
12.6160,0.0620,0.6674,0.7114,0.1606,-0.0100,0.2357,0.6958,-0.1352,0.0748,25.25484333,83.00685167,12.38987827,
12.6200,0.0620,0.6674,0.7114,-0.8215,0.5324,1.3147,0.6958,-0.1352,0.0748,25.25484333,83.00685167,12.38987827,
12.6220,-0.0230,0.7355,0.8646,-0.8215,0.5324,1.3147,0.6958,-0.1352,0.0748,25.25484333,83.00685167,12.38987827,
12.6800,-0.0230,0.7355,0.8646,-0.8215,0.5324,1.3147,0.0332,0.0877,-0.3349,25.25484333,83.00685167,12.38987827,
12.6840,-0.0230,0.7355,0.8646,-0.4976,0.3152,0.6045,0.0332,0.0877,-0.3349,25.25484333,83.00685167,12.38987827,
12.6870,-0.0230,0.6754,0.8236,-0.4976,0.3152,0.6045,0.0332,0.0877,-0.3349,25.25484333,83.00685167,12.38987827,
12.7480,-0.0230,0.6754,0.8236,-0.4976,0.3152,0.6045,-0.5562,0.1273,-0.5465,25.25484333,83.00685167,12.38987827,
12.7530,-0.0230,0.6754,0.8236,-0.5094,-0.2775,0.4940,-0.5562,0.1273,-0.5465,25.25484333,83.00685167,12.38987827,
12.7550,-0.0560,0.6354,0.7104,-0.5094,-0.2775,0.4940,-0.5562,0.1273,-0.5465,25.25484333,83.00685167,12.38987827,
12.8140,-0.0560,0.6354,0.7104,-0.5094,-0.2775,0.4940,-0.0253,0.0460,-0.6269,25.25484333,83.00685167,12.38987827,
12.8180,-0.0560,0.6354,0.7104,-0.5526,-0.3183,-0.1524,-0.0253,0.0460,-0.6269,25.25484333,83.00685167,12.38987827,
12.8220,-0.0820,0.6214,0.7414,-0.5526,-0.3183,-0.1524,-0.0253,0.0460,-0.6269,25.25484333,83.00685167,12.38987827,
12.8790,-0.0820,0.6214,0.7414,-0.5526,-0.3183,-0.1524,0.3301,-0.0497,0.2320,25.25484333,83.00685167,12.38987827,
12.8850,-0.0820,0.6214,0.7414,0.4133,-0.8042,-0.9465,0.3301,-0.0497,0.2320,25.25484333,83.00685167,12.38987827,
12.8870,0.0200,0.5834,0.6504,0.4133,-0.8042,-0.9465,0.3301,-0.0497,0.2320,25.25484333,83.00685167,12.38987827,
12.9440,0.0200,0.5834,0.6504,0.4133,-0.8042,-0.9465,0.6782,-0.2010,1.0127,25.25484333,83.00685167,12.38987827,
12.9500,0.0200,0.5834,0.6504,0.8781,-0.5031,-3.0543,0.6782,-0.2010,1.0127,25.25484333,83.00685167,12.38987827,
12.9520,0.0560,0.6804,0.5594,0.8781,-0.5031,-3.0543,0.6782,-0.2010,1.0127,25.25484333,83.00685167,12.38987827,
13.0120,0.0560,0.6804,0.5594,0.8781,-0.5031,-3.0543,-0.2893,0.0055,0.6543,25.25484333,83.00685167,12.38987827,
13.0160,0.0560,0.6804,0.5594,0.5562,-0.4808,1.6823,-0.2893,0.0055,0.6543,25.25484333,83.00685167,12.38987827,
13.0180,0.1170,0.6284,0.9056,0.5562,-0.4808,1.6823,-0.2893,0.0055,0.6543,25.25484333,83.00685167,12.38987827,
13.0760,0.1170,0.6284,0.9056,0.5562,-0.4808,1.6823,-0.7163,0.1053,0.4972,25.25484333,83.00685167,12.38987827,
13.0790,0.1170,0.6284,0.9056,0.2513,0.5035,0.4440,-0.7163,0.1053,0.4972,25.25484333,83.00685167,12.38987827,
13.0830,0.1031,0.6854,0.8155,0.2513,0.5035,0.4440,-0.7163,0.1053,0.4972,25.25484333,83.00685167,12.38987827,
13.1490,0.1031,0.6854,0.8155,0.2513,0.5035,0.4440,0.3455,0.0226,-0.4752,25.25484333,83.00685167,12.38987827,
13.1510,0.1031,0.6854,0.8155,-0.9085,0.9992,0.7960,0.3455,0.0226,-0.4752,25.25484333,83.00685167,12.38987827,
13.1640,-0.0410,0.7335,0.8446,-0.9085,0.9992,0.7960,0.3455,0.0226,-0.4752,25.25484333,83.00685167,12.38987827,
13.2110,-0.0410,0.7335,0.8446,-0.9085,0.9992,0.7960,0.2431,0.1499,-1.0624,25.25484333,83.00685167,12.38987827,
13.2130,-0.0410,0.7335,0.8446,-1.1149,0.4894,0.2803,0.2431,0.1499,-1.0624,25.25481000,83.00697167,12.40274620,
13.2150,-0.1050,0.7135,0.7776,-1.1149,0.4894,0.2803,0.2431,0.1499,-1.0624,25.25481000,83.00697167,12.40274620,
13.2740,-0.1050,0.7135,0.7776,-1.1149,0.4894,0.2803,-0.0870,0.0520,-0.4730,25.25481000,83.00697167,12.40274620,
13.2760,-0.1050,0.7135,0.7776,0.5469,-0.3429,-2.1807,-0.0870,0.0520,-0.4730,25.25481000,83.00697167,12.40274620,
13.2810,0.0330,0.6214,0.5323,0.5469,-0.3429,-2.1807,-0.0870,0.0520,-0.4730,25.25481000,83.00697167,12.40274620,
13.3400,0.0330,0.6214,0.5323,0.5469,-0.3429,-2.1807,0.6857,-0.1226,0.1896,25.25481000,83.00697167,12.40274620,
13.3420,0.0330,0.6214,0.5323,0.4022,-0.6935,0.6160,0.6857,-0.1226,0.1896,25.25481000,83.00697167,12.40274620,
13.3470,0.0319,0.6234,0.7835,0.4022,-0.6935,0.6160,0.6857,-0.1226,0.1896,25.25481000,83.00697167,12.40274620,
13.4130,0.0519,0.7155,0.8846,0.4022,-0.6935,0.6160,0.6857,-0.1226,0.1896,25.25481000,83.00697167,12.40274620,
13.4180,0.0519,0.7155,0.8846,0.4022,-0.6935,0.6160,-0.2982,-0.1352,0.9128,25.25481000,83.00697167,12.40274620,
13.4210,0.0519,0.7155,0.8846,0.1116,0.4382,1.4035,-0.2982,-0.1352,0.9128,25.25481000,83.00697167,12.40274620,
13.4720,0.0519,0.7155,0.8846,0.1116,0.4382,1.4035,-1.2448,0.1099,0.4212,25.25481000,83.00697167,12.40274620,
13.4760,0.0519,0.7155,0.8846,0.8639,-0.2924,0.8983,-1.2448,0.1099,0.4212,25.25481000,83.00697167,12.40274620,
13.4820,0.1370,0.5863,0.8786,0.8639,-0.2924,0.8983,-1.2448,0.1099,0.4212,25.25481000,83.00697167,12.40274620,
13.5380,0.1370,0.5863,0.8786,0.8639,-0.2924,0.8983,0.0995,-0.0547,-0.1091,25.25481000,83.00697167,12.40274620,
13.5410,0.1370,0.5863,0.8786,-0.2207,0.3713,-0.1950,0.0995,-0.0547,-0.1091,25.25481000,83.00697167,12.40274620,
13.5460,0.0340,0.6514,0.7685,-0.2207,0.3713,-0.1950,0.0995,-0.0547,-0.1091,25.25481000,83.00697167,12.40274620,
13.6070,0.0340,0.6514,0.7685,-0.2207,0.3713,-0.1950,1.4955,-0.2103,-0.5905,25.25481000,83.00697167,12.40274620,
13.6130,0.0340,0.6514,0.7685,-0.9385,0.4153,-1.7752,1.4955,-0.2103,-0.5905,25.25481000,83.00697167,12.40274620,
13.6140,-0.0580,0.7095,0.7885,-0.9385,0.4153,-1.7752,1.4955,-0.2103,-0.5905,25.25481000,83.00697167,12.40274620,
13.6700,-0.0580,0.7095,0.7885,-0.9385,0.4153,-1.7752,0.7474,-0.0421,-0.6352,25.25481000,83.00697167,12.40274620,
13.6740,-0.0580,0.7095,0.7885,-0.1250,0.0317,-1.7576,0.7474,-0.0421,-0.6352,25.25481000,83.00697167,12.40274620,
13.6770,-0.0200,0.7205,0.5763,-0.1250,0.0317,-1.7576,0.7474,-0.0421,-0.6352,25.25481000,83.00697167,12.40274620,
13.7370,-0.0200,0.7205,0.5763,-0.1250,0.0317,-1.7576,-0.0244,0.0296,-0.3365,25.25481000,83.00697167,12.40274620,
13.7410,-0.0200,0.7205,0.5763,0.0868,-0.2489,-0.9567,-0.0244,0.0296,-0.3365,25.25481000,83.00697167,12.40274620,
13.7430,0.0030,0.6935,0.5984,0.0868,-0.2489,-0.9567,-0.0244,0.0296,-0.3365,25.25481000,83.00697167,12.40274620,
13.8040,0.0030,0.6935,0.5984,0.0868,-0.2489,-0.9567,-0.1226,0.0074,-0.0951,25.25481000,83.00697167,12.40274620,
13.8070,0.0030,0.6935,0.5984,-0.1600,-0.3023,-0.1996,-0.1226,0.0074,-0.0951,25.25481000,83.00697167,12.40274620,
13.8110,-0.0710,0.6785,0.7255,-0.1600,-0.3023,-0.1996,-0.1226,0.0074,-0.0951,25.25481000,83.00697167,12.40274620,
13.8690,-0.0710,0.6785,0.7255,-0.1600,-0.3023,-0.1996,-0.1271,-0.0025,0.0023,25.25481000,83.00697167,12.40274620,
13.8720,-0.0710,0.6785,0.7255,0.6723,-0.6554,-1.4329,-0.1271,-0.0025,0.0023,25.25481000,83.00697167,12.40274620,
13.8750,0.0369,0.6484,0.4973,0.6723,-0.6554,-1.4329,-0.1271,-0.0025,0.0023,25.25481000,83.00697167,12.40274620,
13.9350,0.0369,0.6484,0.4973,0.6723,-0.6554,-1.4329,-0.9463,0.0735,-0.1213,25.25481000,83.00697167,12.40274620,
13.9380,0.0369,0.6484,0.4973,-0.0102,-0.3010,1.4356,-0.9463,0.0735,-0.1213,25.25481000,83.00697167,12.40274620,
13.9410,-0.0180,0.6534,0.8765,-0.0102,-0.3010,1.4356,-0.9463,0.0735,-0.1213,25.25481000,83.00697167,12.40274620,
14.0030,-0.0180,0.6534,0.8765,-0.0102,-0.3010,1.4356,-0.6599,0.0507,0.0794,25.25481000,83.00697167,12.40274620,
14.0070,-0.0180,0.6534,0.8765,0.2445,-0.1376,2.0074,-0.6599,0.0507,0.0794,25.25481000,83.00697167,12.40274620,
14.0120,0.0090,0.6334,0.9677,0.2445,-0.1376,2.0074,-0.6599,0.0507,0.0794,25.25481000,83.00697167,12.40274620,
14.0660,0.0090,0.6334,0.9677,0.2445,-0.1376,2.0074,-0.6104,0.0176,0.3474,25.25481000,83.00697167,12.40274620,
14.0680,0.0090,0.6334,0.9677,-0.2098,0.3211,1.7012,-0.6104,0.0176,0.3474,25.25481000,83.00697167,12.40274620,
14.0730,0.0250,0.5854,1.0097,-0.2098,0.3211,1.7012,-0.6104,0.0176,0.3474,25.25481000,83.00697167,12.40274620,
14.1360,0.0250,0.5854,1.0097,-0.2098,0.3211,1.7012,0.3480,-0.1245,0.4223,25.25481000,83.00697167,12.40274620,
14.1390,0.0250,0.5854,1.0097,-0.2223,0.6325,-1.2752,0.3480,-0.1245,0.4223,25.25481000,83.00697167,12.40274620,
14.1400,0.0040,0.6735,0.6635,-0.2223,0.6325,-1.2752,0.3480,-0.1245,0.4223,25.25481000,83.00697167,12.40274620,
14.2010,0.0040,0.6735,0.6635,-0.2223,0.6325,-1.2752,1.1474,-0.1910,0.2723,25.25481000,83.00697167,12.40274620,
14.2020,0.0040,0.6735,0.6635,0.3563,0.2026,-1.5565,1.1474,-0.1910,0.2723,25.25477000,83.00707833,12.39451122,
14.2050,0.0800,0.6904,0.5834,0.3563,0.2026,-1.5565,1.1474,-0.1910,0.2723,25.25477000,83.00707833,12.39451122,
14.2640,0.0800,0.6904,0.5834,0.3563,0.2026,-1.5565,-0.2952,0.0813,-0.1743,25.25477000,83.00707833,12.39451122,
14.2660,0.0800,0.6904,0.5834,-0.4974,0.4191,3.2454,-0.2952,0.0813,-0.1743,25.25477000,83.00707833,12.39451122,
14.2840,-0.0430,0.7085,1.2248,-0.4974,0.4191,3.2454,-0.2952,0.0813,-0.1743,25.25477000,83.00707833,12.39451122,
14.3300,-0.0430,0.7085,1.2248,-0.4974,0.4191,3.2454,-1.0378,0.2542,-0.1043,25.25477000,83.00707833,12.39451122,
14.3320,-0.0430,0.7085,1.2248,-0.1999,0.5473,2.1538,-1.0378,0.2542,-0.1043,25.25477000,83.00707833,12.39451122,
14.3370,-0.0169,0.6294,1.1267,-0.1999,0.5473,2.1538,-1.0378,0.2542,-0.1043,25.25477000,83.00707833,12.39451122,
14.3980,-0.0169,0.6294,1.1267,-0.1999,0.5473,2.1538,-0.1555,0.0163,0.2043,25.25477000,83.00707833,12.39451122,
14.4020,-0.0169,0.6294,1.1267,0.5110,0.3512,-1.4969,-0.1555,0.0163,0.2043,25.25477000,83.00707833,12.39451122,
14.4030,0.0600,0.6814,0.4793,0.5110,0.3512,-1.4969,-0.1555,0.0163,0.2043,25.25477000,83.00707833,12.39451122,
14.4620,0.0600,0.6814,0.4793,0.5110,0.3512,-1.4969,1.0258,-0.1717,0.0303,25.25477000,83.00707833,12.39451122,
14.4660,0.0600,0.6814,0.4793,0.1147,-0.3492,-1.0181,1.0258,-0.1717,0.0303,25.25477000,83.00707833,12.39451122,
14.4710,0.0410,0.6154,0.6554,0.1147,-0.3492,-1.0181,1.0258,-0.1717,0.0303,25.25477000,83.00707833,12.39451122,
14.5290,0.0410,0.6154,0.6554,0.1147,-0.3492,-1.0181,1.3713,-0.2124,-0.0222,25.25477000,83.00707833,12.39451122,
14.5350,0.0410,0.6154,0.6554,-0.9172,-0.1156,-1.6774,1.3713,-0.2124,-0.0222,25.25477000,83.00707833,12.39451122,
14.5380,-0.0540,0.6444,0.7976,-0.9172,-0.1156,-1.6774,1.3713,-0.2124,-0.0222,25.25477000,83.00707833,12.39451122,
14.5970,-0.0540,0.6444,0.7976,-0.9172,-0.1156,-1.6774,-0.7110,0.0883,-0.2890,25.25477000,83.00707833,12.39451122,
14.5990,-0.0540,0.6444,0.7976,0.1120,-0.8946,-0.4561,-0.7110,0.0883,-0.2890,25.25477000,83.00707833,12.39451122,
14.6020,0.0130,0.6334,0.5563,0.1120,-0.8946,-0.4561,-0.7110,0.0883,-0.2890,25.25477000,83.00707833,12.39451122,
14.6600,0.0130,0.6334,0.5563,0.1120,-0.8946,-0.4561,-0.0344,0.0476,-0.4514,25.25477000,83.00707833,12.39451122,
14.6650,0.0130,0.6334,0.5563,-0.5206,-0.4653,0.2365,-0.0344,0.0476,-0.4514,25.25477000,83.00707833,12.39451122,
14.6680,-0.0540,0.6334,0.7574,-0.5206,-0.4653,0.2365,-0.0344,0.0476,-0.4514,25.25477000,83.00707833,12.39451122,
14.7260,-0.0540,0.6334,0.7574,-0.5206,-0.4653,0.2365,-0.2046,0.0530,-0.4670,25.25477000,83.00707833,12.39451122,
14.7300,-0.0540,0.6334,0.7574,-0.5238,-0.1925,0.9803,-0.2046,0.0530,-0.4670,25.25477000,83.00707833,12.39451122,
14.7340,-0.0550,0.6424,0.7124,-0.5238,-0.1925,0.9803,-0.2046,0.0530,-0.4670,25.25477000,83.00707833,12.39451122,
14.7940,-0.0550,0.6424,0.7124,-0.5238,-0.1925,0.9803,-0.2832,0.0776,-0.1330,25.25477000,83.00707833,12.39451122,
14.7990,-0.0550,0.6424,0.7124,0.7589,-0.8309,1.3374,-0.2832,0.0776,-0.1330,25.25477000,83.00707833,12.39451122,
14.8030,0.0400,0.5684,0.8936,0.7589,-0.8309,1.3374,-0.2832,0.0776,-0.1330,25.25477000,83.00707833,12.39451122,
14.8580,0.0400,0.5684,0.8936,0.7589,-0.8309,1.3374,-0.3986,-0.1138,1.5477,25.25477000,83.00707833,12.39451122,
14.8610,0.0400,0.5684,0.8936,1.1966,-0.1998,-0.8213,-0.3986,-0.1138,1.5477,25.25477000,83.00707833,12.39451122,
14.8660,0.0820,0.7024,0.8355,1.1966,-0.1998,-0.8213,-0.3986,-0.1138,1.5477,25.25477000,83.00707833,12.39451122,
14.9240,0.0820,0.7024,0.8355,1.1966,-0.1998,-0.8213,-0.0299,-0.1988,1.5281,25.25477000,83.00707833,12.39451122,
14.9300,0.0820,0.7024,0.8355,1.3009,0.2069,-0.6109,-0.0299,-0.1988,1.5281,25.25477000,83.00707833,12.39451122,
14.9320,0.2241,0.6364,0.7214,1.3009,0.2069,-0.6109,-0.0299,-0.1988,1.5281,25.25477000,83.00707833,12.39451122,
14.9920,0.2241,0.6364,0.7214,1.3009,0.2069,-0.6109,0.1617,-0.0355,0.1355,25.25477000,83.00707833,12.39451122,
14.9960,0.2241,0.6364,0.7214,-0.6132,0.4023,1.6960,0.1617,-0.0355,0.1355,25.25477000,83.00707833,12.39451122,
15.0000,0.0400,0.6384,0.8415,-0.6132,0.4023,1.6960,0.1617,-0.0355,0.1355,25.25477000,83.00707833,12.39451122,
15.0570,0.0400,0.6384,0.8415,-0.6132,0.4023,1.6960,-0.0490,0.2667,-1.5265,25.25477000,83.00707833,12.39451122,
15.0620,0.0400,0.6384,0.8415,-2.1649,1.2162,1.6925,-0.0490,0.2667,-1.5265,25.25477000,83.00707833,12.39451122,
15.0700,-0.1270,0.6985,0.9277,-2.1649,1.2162,1.6925,-0.0490,0.2667,-1.5265,25.25477000,83.00707833,12.39451122,
15.1220,-0.1270,0.6985,0.9277,-2.1649,1.2162,1.6925,0.3329,0.1531,-1.3305,25.25477000,83.00707833,12.39451122,
15.1240,-0.1270,0.6985,0.9277,-0.8246,-0.1435,0.8955,0.3329,0.1531,-1.3305,25.25477000,83.00707833,12.39451122,
15.1300,-0.1220,0.6254,0.8596,-0.8246,-0.1435,0.8955,0.3329,0.1531,-1.3305,25.25477000,83.00707833,12.39451122,
15.1950,-0.1220,0.6254,0.8596,-0.8246,-0.1435,0.8955,0.7426,-0.0082,-0.2541,25.25477000,83.00707833,12.39451122,
15.1960,-0.1220,0.6254,0.8596,0.9014,-0.4805,-1.2438,0.7426,-0.0082,-0.2541,25.25475667,83.00721333,12.40840816,
15.1980,0.0380,0.6164,0.6184,0.9014,-0.4805,-1.2438,0.7426,-0.0082,-0.2541,25.25475667,83.00721333,12.40840816,
15.2540,0.0380,0.6164,0.6184,0.9014,-0.4805,-1.2438,-0.0612,-0.1309,0.9277,25.25475667,83.00721333,12.40840816,
15.2570,0.0380,0.6164,0.6184,0.7620,-0.7228,-0.3493,-0.0612,-0.1309,0.9277,25.25475667,83.00721333,12.40840816,
15.2670,0.0860,0.6134,0.5834,0.7620,-0.7228,-0.3493,-0.0612,-0.1309,0.9277,25.25475667,83.00721333,12.40840816,
15.3200,0.0860,0.6134,0.5834,0.7620,-0.7228,-0.3493,0.2790,-0.1630,0.9139,25.25475667,83.00721333,12.40840816,
15.3230,0.0860,0.6134,0.5834,0.5389,-0.5783,-0.5849,0.2790,-0.1630,0.9139,25.25475667,83.00721333,12.40840816,
15.3270,0.0419,0.6264,0.8786,0.5389,-0.5783,-0.5849,0.2790,-0.1630,0.9139,25.25475667,83.00721333,12.40840816,
15.3880,0.0419,0.6264,0.8786,0.5389,-0.5783,-0.5849,-0.7359,0.1143,-0.0613,25.25475667,83.00721333,12.40840816,
15.3900,0.0419,0.6264,0.8786,-0.5851,0.6533,-0.2008,-0.7359,0.1143,-0.0613,25.25475667,83.00721333,12.40840816,
15.3940,-0.0330,0.6914,0.7474,-0.5851,0.6533,-0.2008,-0.7359,0.1143,-0.0613,25.25475667,83.00721333,12.40840816,
15.4520,-0.0330,0.6914,0.7474,-0.5851,0.6533,-0.2008,0.7777,-0.0250,-0.3263,25.25475667,83.00721333,12.40840816,
15.4560,-0.0330,0.6914,0.7474,0.0577,0.1317,-2.2772,0.7777,-0.0250,-0.3263,25.25475667,83.00721333,12.40840816,
15.4610,-0.0240,0.7014,0.5894,0.0577,0.1317,-2.2772,0.7777,-0.0250,-0.3263,25.25475667,83.00721333,12.40840816,
15.5200,-0.0240,0.7014,0.5894,0.0577,0.1317,-2.2772,0.4387,0.0437,-0.3421,25.25475667,83.00721333,12.40840816,
15.5240,-0.0240,0.7014,0.5894,-0.1751,-0.0778,0.1168,0.4387,0.0437,-0.3421,25.25475667,83.00721333,12.40840816,
15.5260,0.0290,0.6974,0.7295,-0.1751,-0.0778,0.1168,0.4387,0.0437,-0.3421,25.25475667,83.00721333,12.40840816,
15.5870,0.0290,0.6974,0.7295,-0.1751,-0.0778,0.1168,-0.5165,0.0994,0.1931,25.25475667,83.00721333,12.40840816,
15.5930,0.0290,0.6974,0.7295,-0.3688,-0.0801,3.1170,-0.5165,0.0994,0.1931,25.25475667,83.00721333,12.40840816,
15.5950,-0.0330,0.6744,1.0497,-0.3688,-0.0801,3.1170,-0.5165,0.0994,0.1931,25.25475667,83.00721333,12.40840816,
15.6510,-0.0330,0.6744,1.0497,-0.3688,-0.0801,3.1170,-0.7653,0.0518,0.4128,25.25475667,83.00721333,12.40840816,
15.6560,-0.0330,0.6744,1.0497,0.4729,-0.2057,-0.9556,-0.7653,0.0518,0.4128,25.25475667,83.00721333,12.40840816,
15.6600,0.0440,0.6214,0.7235,0.4729,-0.2057,-0.9556,-0.7653,0.0518,0.4128,25.25475667,83.00721333,12.40840816,
15.7170,0.0440,0.6214,0.7235,0.4729,-0.2057,-0.9556,0.1854,-0.1009,0.5484,25.25475667,83.00721333,12.40840816,
15.7280,0.0440,0.6214,0.7235,0.6187,-0.3871,-1.9185,0.1854,-0.1009,0.5484,25.25475667,83.00721333,12.40840816,
15.7310,0.0480,0.6844,0.5293,0.6187,-0.3871,-1.9185,0.1854,-0.1009,0.5484,25.25475667,83.00721333,12.40840816,
15.7840,0.0480,0.6844,0.5293,0.6187,-0.3871,-1.9185,0.8714,-0.0632,-0.4208,25.25475667,83.00721333,12.40840816,
15.7860,0.0480,0.6844,0.5293,-0.7272,-0.2855,1.8027,0.8714,-0.0632,-0.4208,25.25475667,83.00721333,12.40840816,
15.7910,-0.0400,0.6704,0.8986,-0.7272,-0.2855,1.8027,0.8714,-0.0632,-0.4208,25.25475667,83.00721333,12.40840816,
15.8500,-0.0400,0.6704,0.8986,-0.7272,-0.2855,1.8027,-0.5840,0.1237,-0.2838,25.25475667,83.00721333,12.40840816,
15.8520,-0.0400,0.6704,0.8986,-0.4333,0.4145,1.4090,-0.5840,0.1237,-0.2838,25.25475667,83.00721333,12.40840816,
15.8590,-0.0319,0.6974,1.0127,-0.4333,0.4145,1.4090,-0.5840,0.1237,-0.2838,25.25475667,83.00721333,12.40840816,
15.9150,-0.0319,0.6974,1.0127,-0.4333,0.4145,1.4090,-0.6829,0.0684,0.1415,25.25475667,83.00721333,12.40840816,
15.9210,-0.0319,0.6974,1.0127,0.4109,0.0692,0.4006,-0.6829,0.0684,0.1415,25.25475667,83.00721333,12.40840816,
15.9230,0.0259,0.6904,0.7004,0.4109,0.0692,0.4006,-0.6829,0.0684,0.1415,25.25475667,83.00721333,12.40840816,
15.9830,0.0259,0.6904,0.7004,0.4109,0.0692,0.4006,0.5794,-0.0016,-0.4169,25.25475667,83.00721333,12.40840816,
15.9870,0.0259,0.6904,0.7004,-0.9467,0.4962,1.4460,0.5794,-0.0016,-0.4169,25.25475667,83.00721333,12.40840816,
15.9900,-0.1050,0.7014,0.9076,-0.9467,0.4962,1.4460,0.5794,-0.0016,-0.4169,25.25475667,83.00721333,12.40840816,
16.0540,-0.1050,0.7014,0.9076,-0.9467,0.4962,1.4460,-0.1312,0.0609,-0.5451,25.25475667,83.00721333,12.40840816,
16.0560,-0.1050,0.7014,0.9076,0.0929,0.3541,-0.9664,-0.1312,0.0609,-0.5451,25.25475667,83.00721333,12.40840816,
16.0620,-0.0280,0.6764,0.6694,0.0929,0.3541,-0.9664,-0.1312,0.0609,-0.5451,25.25475667,83.00721333,12.40840816,
16.1160,-0.0280,0.6764,0.6694,0.0929,0.3541,-0.9664,0.4121,-0.0510,0.2322,25.25475667,83.00721333,12.40840816,
16.1190,-0.0280,0.6764,0.6694,0.0356,-0.2989,0.8642,0.4121,-0.0510,0.2322,25.25475667,83.00721333,12.40840816,
16.1210,-0.0770,0.6123,0.9966,0.0356,-0.2989,0.8642,0.4121,-0.0510,0.2322,25.25475667,83.00721333,12.40840816,
16.1810,-0.0770,0.6123,0.9966,0.0356,-0.2989,0.8642,-0.2880,0.0107,-0.1825,25.25475667,83.00721333,12.40840816,
16.1830,-0.0770,0.6123,0.9966,-0.6355,-0.3028,0.8709,-0.2880,0.0107,-0.1825,25.25473167,83.00732667,12.08979511,
16.1850,-0.1020,0.6134,0.8536,-0.6355,-0.3028,0.8709,-0.2880,0.0107,-0.1825,25.25473167,83.00732667,12.08979511,
16.2440,-0.1020,0.6134,0.8536,-0.6355,-0.3028,0.8709,0.2904,-0.0446,-0.0900,25.25473167,83.00732667,12.08979511,
16.2460,-0.1020,0.6134,0.8536,0.6393,0.2336,-3.6721,0.2904,-0.0446,-0.0900,25.25473167,83.00732667,12.08979511,
16.2510,0.0180,0.6624,0.3942,0.6393,0.2336,-3.6721,0.2904,-0.0446,-0.0900,25.25473167,83.00732667,12.08979511,
16.3100,0.0180,0.6624,0.3942,0.6393,0.2336,-3.6721,-0.0730,-0.0640,0.3574,25.25473167,83.00732667,12.08979511,
16.3130,0.0180,0.6624,0.3942,1.1889,-0.9766,-0.0860,-0.0730,-0.0640,0.3574,25.25473167,83.00732667,12.08979511,
16.3170,0.0150,0.6134,0.6644,1.1889,-0.9766,-0.0860,-0.0730,-0.0640,0.3574,25.25473167,83.00732667,12.08979511,
16.3790,0.0150,0.6134,0.6644,1.1889,-0.9766,-0.0860,-0.7490,-0.0161,0.5328,25.25473167,83.00732667,12.08979511,
16.3820,0.0150,0.6134,0.6644,0.7851,-0.8660,0.7733,-0.7490,-0.0161,0.5328,25.25473167,83.00732667,12.08979511,
16.3880,0.1591,0.4983,0.5263,0.7851,-0.8660,0.7733,-0.7490,-0.0161,0.5328,25.25473167,83.00732667,12.08979511,
16.4420,0.1591,0.4983,0.5263,0.7851,-0.8660,0.7733,0.4064,-0.2210,0.9025,25.25473167,83.00732667,12.08979511,
16.4460,0.1591,0.4983,0.5263,0.6476,-0.3259,-0.7728,0.4064,-0.2210,0.9025,25.25473167,83.00732667,12.08979511,
16.4510,0.1231,0.6123,0.6835,0.6476,-0.3259,-0.7728,0.4064,-0.2210,0.9025,25.25473167,83.00732667,12.08979511,
16.5090,0.1231,0.6123,0.6835,0.6476,-0.3259,-0.7728,-0.6262,0.1616,-0.5765,25.25473167,83.00732667,12.08979511,
16.5130,0.1231,0.6123,0.6835,-2.7125,0.7146,5.5872,-0.6262,0.1616,-0.5765,25.25473167,83.00732667,12.08979511,
16.5150,-0.2241,0.7064,1.3429,-2.7125,0.7146,5.5872,-0.6262,0.1616,-0.5765,25.25473167,83.00732667,12.08979511,
16.5760,-0.2241,0.7064,1.3429,-2.7125,0.7146,5.5872,-1.2941,0.1855,-0.8200,25.25473167,83.00732667,12.08979511,
16.5830,-0.2241,0.7064,1.3429,0.4385,0.0448,0.3940,-1.2941,0.1855,-0.8200,25.25473167,83.00732667,12.08979511,
16.5850,0.0180,0.5453,0.9046,0.4385,0.0448,0.3940,-1.2941,0.1855,-0.8200,25.25473167,83.00732667,12.08979511,
16.6400,0.0180,0.5453,0.9046,0.4385,0.0448,0.3940,-0.0057,-0.0244,-0.1172,25.25473167,83.00732667,12.08979511,
16.6430,0.0180,0.5453,0.9046,0.0425,0.2871,-1.9745,-0.0057,-0.0244,-0.1172,25.25473167,83.00732667,12.08979511,
16.6480,-0.0380,0.6104,0.4122,0.0425,0.2871,-1.9745,-0.0057,-0.0244,-0.1172,25.25473167,83.00732667,12.08979511,
16.7080,-0.0380,0.6104,0.4122,0.0425,0.2871,-1.9745,2.8908,-0.1564,-0.3187,25.25473167,83.00732667,12.08979511,
16.7140,-0.0380,0.6104,0.4122,0.1630,0.3944,-3.0395,2.8908,-0.1564,-0.3187,25.25473167,83.00732667,12.08979511,
16.7150,-0.0159,0.7124,0.4303,0.1630,0.3944,-3.0395,2.8908,-0.1564,-0.3187,25.25473167,83.00732667,12.08979511,
16.7740,-0.0159,0.7124,0.4303,0.1630,0.3944,-3.0395,0.6145,-0.0214,0.1129,25.25473167,83.00732667,12.08979511,
16.7800,-0.0159,0.7124,0.4303,0.2520,-0.3390,-0.2424,0.6145,-0.0214,0.1129,25.25473167,83.00732667,12.08979511,
16.7830,0.0400,0.7104,0.5093,0.2520,-0.3390,-0.2424,0.6145,-0.0214,0.1129,25.25473167,83.00732667,12.08979511,
16.8390,0.0400,0.7104,0.5093,0.2520,-0.3390,-0.2424,0.5513,-0.0754,0.9203,25.25473167,83.00732667,12.08979511,
16.8410,0.0400,0.7104,0.5093,0.9113,-0.8799,-0.1381,0.5513,-0.0754,0.9203,25.25473167,83.00732667,12.08979511,
16.8450,0.0910,0.6574,0.8226,0.9113,-0.8799,-0.1381,0.5513,-0.0754,0.9203,25.25473167,83.00732667,12.08979511,
16.9040,0.0910,0.6574,0.8226,0.9113,-0.8799,-0.1381,0.4411,-0.1177,0.7726,25.25473167,83.00732667,12.08979511,
16.9070,0.0910,0.6574,0.8226,0.1351,-0.3531,-0.8262,0.4411,-0.1177,0.7726,25.25473167,83.00732667,12.08979511,
16.9110,0.0790,0.7135,0.5754,0.1351,-0.3531,-0.8262,0.4411,-0.1177,0.7726,25.25473167,83.00732667,12.08979511,
16.9730,0.0790,0.7135,0.5754,0.1351,-0.3531,-0.8262,-0.3745,0.0462,0.5236,25.25473167,83.00732667,12.08979511,
16.9780,0.0790,0.7135,0.5754,-0.0233,-0.2291,-0.9457,-0.3745,0.0462,0.5236,25.25473167,83.00732667,12.08979511,
16.9820,0.0330,0.7235,0.7465,-0.0233,-0.2291,-0.9457,-0.3745,0.0462,0.5236,25.25473167,83.00732667,12.08979511,
17.0370,0.0330,0.7235,0.7465,-0.0233,-0.2291,-0.9457,-1.3718,0.3817,-0.7962,25.25473167,83.00732667,12.08979511,
17.0420,0.0330,0.7235,0.7465,-1.3516,-0.0102,3.3526,-1.3718,0.3817,-0.7962,25.25473167,83.00732667,12.08979511,
17.0510,-0.1481,0.6654,1.0657,-1.3516,-0.0102,3.3526,-1.3718,0.3817,-0.7962,25.25473167,83.00732667,12.08979511,
17.1020,-0.1481,0.6654,1.0657,-1.3516,-0.0102,3.3526,-0.7794,0.2317,-1.2456,25.25473167,83.00732667,12.08979511,
17.1040,-0.1481,0.6654,1.0657,-0.0384,-0.0306,-2.3860,-0.7794,0.2317,-1.2456,25.25473167,83.00732667,12.08979511,
17.1100,-0.0390,0.6204,0.5384,-0.0384,-0.0306,-2.3860,-0.7794,0.2317,-1.2456,25.25473167,83.00732667,12.08979511,
17.1770,-0.0390,0.6204,0.5384,-0.0384,-0.0306,-2.3860,-0.5986,0.0350,-0.0677,25.25473167,83.00732667,12.08979511,
17.1790,-0.0390,0.6204,0.5384,0.9281,-0.6044,-0.4905,-0.5986,0.0350,-0.0677,25.25473167,83.00732667,12.08979511,
17.1800,0.0550,0.5453,0.7445,0.9281,-0.6044,-0.4905,-0.5986,0.0350,-0.0677,25.25473167,83.00732667,12.08979511,
17.2340,0.0550,0.5453,0.7445,0.9281,-0.6044,-0.4905,1.6543,-0.2194,0.6104,25.25473167,83.00732667,12.08979511,
17.2360,0.0550,0.5453,0.7445,0.2188,0.7731,-0.6693,1.6543,-0.2194,0.6104,25.25472333,83.00745500,11.73669624,
17.2410,0.0410,0.6654,0.9556,0.2188,0.7731,-0.6693,1.6543,-0.2194,0.6104,25.25472333,83.00745500,11.73669624,
17.3000,0.0410,0.6654,0.9556,0.2188,0.7731,-0.6693,-1.0815,0.0754,0.8076,25.25472333,83.00745500,11.73669624,
17.3020,0.0410,0.6654,0.9556,0.5236,-0.1601,2.3196,-1.0815,0.0754,0.8076,25.25472333,83.00745500,11.73669624,
17.3070,0.0319,0.6774,0.9627,0.5236,-0.1601,2.3196,-1.0815,0.0754,0.8076,25.25472333,83.00745500,11.73669624,
17.3700,0.0319,0.6774,0.9627,0.5236,-0.1601,2.3196,-1.0254,0.1776,-0.1721,25.25472333,83.00745500,11.73669624,
17.3710,0.0319,0.6774,0.9627,-0.3983,-0.3030,1.8500,-1.0254,0.1776,-0.1721,25.25472333,83.00745500,11.73669624,
17.3750,-0.0209,0.5563,0.9987,-0.3983,-0.3030,1.8500,-1.0254,0.1776,-0.1721,25.25472333,83.00745500,11.73669624,
17.4320,-0.0209,0.5563,0.9987,-0.3983,-0.3030,1.8500,1.0719,-0.0022,-1.2096,25.25472333,83.00745500,11.73669624,
17.4360,-0.0209,0.5563,0.9987,-1.3206,0.5247,-2.0075,1.0719,-0.0022,-1.2096,25.25472333,83.00745500,11.73669624,
17.4410,-0.1400,0.6354,0.6854,-1.3206,0.5247,-2.0075,1.0719,-0.0022,-1.2096,25.25472333,83.00745500,11.73669624,
17.5000,-0.1400,0.6354,0.6854,-1.3206,0.5247,-2.0075,1.3766,-0.0187,-0.4478,25.25472333,83.00745500,11.73669624,
17.5050,-0.1400,0.6354,0.6854,0.8261,-0.2764,-3.4684,1.3766,-0.0187,-0.4478,25.25472333,83.00745500,11.73669624,
17.5070,0.0460,0.7035,0.2661,0.8261,-0.2764,-3.4684,1.3766,-0.0187,-0.4478,25.25472333,83.00745500,11.73669624,
17.5670,0.0460,0.7035,0.2661,0.8261,-0.2764,-3.4684,-0.7074,0.0054,0.3365,25.25472333,83.00745500,11.73669624,
17.5730,0.0460,0.7035,0.2661,-0.0475,-1.4955,6.4703,-0.7074,0.0054,0.3365,25.25472333,83.00745500,11.73669624,
17.5740,-0.0310,0.5603,1.3619,-0.0475,-1.4955,6.4703,-0.7074,0.0054,0.3365,25.25472333,83.00745500,11.73669624,
17.6310,-0.0310,0.5603,1.3619,-0.0475,-1.4955,6.4703,-2.4004,0.2009,0.2338,25.25472333,83.00745500,11.73669624,
17.6350,-0.0310,0.5603,1.3619,-0.1587,-0.0016,2.2536,-2.4004,0.2009,0.2338,25.25472333,83.00745500,11.73669624,
17.6370,-0.0410,0.5773,1.0467,-0.1587,-0.0016,2.2536,-2.4004,0.2009,0.2338,25.25472333,83.00745500,11.73669624,
17.6970,-0.0410,0.5773,1.0467,-0.1587,-0.0016,2.2536,0.0117,-0.0592,0.3893,25.25472333,83.00745500,11.73669624,
17.7010,-0.0410,0.5773,1.0467,0.2059,0.4463,-1.6419,0.0117,-0.0592,0.3893,25.25472333,83.00745500,11.73669624,
17.7030,-0.0310,0.6434,0.6474,0.2059,0.4463,-1.6419,0.0117,-0.0592,0.3893,25.25472333,83.00745500,11.73669624,
17.7640,-0.0310,0.6434,0.6474,0.2059,0.4463,-1.6419,1.8072,-0.2421,-0.0260,25.25472333,83.00745500,11.73669624,
17.7670,-0.0310,0.6434,0.6474,-0.1903,0.6717,-0.9632,1.8072,-0.2421,-0.0260,25.25472333,83.00745500,11.73669624,
17.7710,-0.0200,0.7114,0.6685,-0.1903,0.6717,-0.9632,1.8072,-0.2421,-0.0260,25.25472333,83.00745500,11.73669624,
17.8280,-0.0200,0.7114,0.6685,-0.1903,0.6717,-0.9632,0.0835,-0.0258,-0.0837,25.25472333,83.00745500,11.73669624,
17.8300,-0.0200,0.7114,0.6685,-0.1450,0.3340,0.0233,0.0835,-0.0258,-0.0837,25.25472333,83.00745500,11.73669624,
17.8350,-0.0190,0.6895,0.7585,-0.1450,0.3340,0.0233,0.0835,-0.0258,-0.0837,25.25472333,83.00745500,11.73669624,
17.8940,-0.0190,0.6895,0.7585,-0.1450,0.3340,0.0233,0.0316,0.0693,-0.6039,25.25472333,83.00745500,11.73669624,
17.8960,-0.0190,0.6895,0.7585,-0.5152,0.6740,0.6603,0.0316,0.0693,-0.6039,25.25472333,83.00745500,11.73669624,
17.9010,-0.0700,0.6935,0.8455,-0.5152,0.6740,0.6603,0.0316,0.0693,-0.6039,25.25472333,83.00745500,11.73669624,
17.9630,-0.0700,0.6935,0.8455,-0.5152,0.6740,0.6603,0.1972,0.0540,-0.5364,25.25472333,83.00745500,11.73669624,
17.9680,-0.0700,0.6935,0.8455,0.3815,0.2992,-2.0978,0.1972,0.0540,-0.5364,25.25472333,83.00745500,11.73669624,
17.9700,-0.0180,0.6945,0.5323,0.3815,0.2992,-2.0978,0.1972,0.0540,-0.5364,25.25472333,83.00745500,11.73669624,
18.0280,-0.0180,0.6945,0.5323,0.3815,0.2992,-2.0978,1.1190,-0.0855,0.4352,25.25472333,83.00745500,11.73669624,
18.0340,-0.0180,0.6945,0.5323,0.7503,-0.4109,-0.3048,1.1190,-0.0855,0.4352,25.25472333,83.00745500,11.73669624,
18.0360,0.0380,0.6754,0.6654,0.7503,-0.4109,-0.3048,1.1190,-0.0855,0.4352,25.25472333,83.00745500,11.73669624,
18.0920,0.0380,0.6754,0.6654,0.7503,-0.4109,-0.3048,-0.3642,-0.0457,0.5835,25.25472333,83.00745500,11.73669624,
18.0950,0.0380,0.6754,0.6654,0.4855,-0.3516,-0.1112,-0.3642,-0.0457,0.5835,25.25472333,83.00745500,11.73669624,
18.1010,0.0100,0.7035,0.7595,0.4855,-0.3516,-0.1112,-0.3642,-0.0457,0.5835,25.25472333,83.00745500,11.73669624,
18.1610,0.0100,0.7035,0.7595,0.4855,-0.3516,-0.1112,-1.1706,0.0848,0.0688,25.25472333,83.00745500,11.73669624,
18.1630,0.0100,0.7035,0.7595,-0.1062,-0.6176,2.3251,-1.1706,0.0848,0.0688,25.25469833,83.00756833,11.45771694,
18.1650,0.0469,0.5184,0.9927,-0.1062,-0.6176,2.3251,-1.1706,0.0848,0.0688,25.25469833,83.00756833,11.45771694,
18.2240,0.0469,0.5184,0.9927,-0.1062,-0.6176,2.3251,-0.1053,-0.0019,-0.0962,25.25469833,83.00756833,11.45771694,
18.2260,0.0469,0.5184,0.9927,-0.5281,0.6151,-2.0514,-0.1053,-0.0019,-0.0962,25.25469833,83.00756833,11.45771694,
18.2310,-0.0700,0.6985,0.5934,-0.5281,0.6151,-2.0514,-0.1053,-0.0019,-0.0962,25.25469833,83.00756833,11.45771694,
18.2900,-0.0700,0.6985,0.5934,-0.5281,0.6151,-2.0514,0.0725,-0.0315,-0.1912,25.25469833,83.00756833,11.45771694,
18.2960,-0.0700,0.6985,0.5934,0.4540,-0.9439,-0.0376,0.0725,-0.0315,-0.1912,25.25469833,83.00756833,11.45771694,
18.2980,0.0920,0.5494,0.5153,0.4540,-0.9439,-0.0376,0.0725,-0.0315,-0.1912,25.25469833,83.00756833,11.45771694,
18.3580,0.0920,0.5494,0.5153,0.4540,-0.9439,-0.0376,0.3021,-0.0578,-0.1151,25.25469833,83.00756833,11.45771694,
18.3610,0.0920,0.5494,0.5153,-0.3050,-0.6290,0.2390,0.3021,-0.0578,-0.1151,25.25469833,83.00756833,11.45771694,
18.3640,0.0510,0.5653,0.6964,-0.3050,-0.6290,0.2390,0.3021,-0.0578,-0.1151,25.25469833,83.00756833,11.45771694,
18.4220,0.0510,0.5653,0.6964,-0.3050,-0.6290,0.2390,0.0057,-0.0227,0.2737,25.25469833,83.00756833,11.45771694,
18.4250,0.0510,0.5653,0.6964,-0.0825,0.0837,0.7461,0.0057,-0.0227,0.2737,25.25469833,83.00756833,11.45771694,
18.4310,0.0090,0.6864,0.8255,-0.0825,0.0837,0.7461,0.0057,-0.0227,0.2737,25.25469833,83.00756833,11.45771694,
18.4890,0.0090,0.6864,0.8255,-0.0825,0.0837,0.7461,-1.7072,0.2358,-0.1184,25.25469833,83.00756833,11.45771694,
18.4940,0.0090,0.6864,0.8255,0.0629,-0.2952,4.8585,-1.7072,0.2358,-0.1184,25.25469833,83.00756833,11.45771694,
18.4970,0.0090,0.5734,1.2939,0.0629,-0.2952,4.8585,-1.7072,0.2358,-0.1184,25.25469833,83.00756833,11.45771694,
18.5560,0.0090,0.5734,1.2939,0.0629,-0.2952,4.8585,-0.3352,0.0001,0.1025,25.25469833,83.00756833,11.45771694,
18.5600,0.0090,0.5734,1.2939,-0.3741,0.7122,-1.3022,-0.3352,0.0001,0.1025,25.25469833,83.00756833,11.45771694,
18.5640,-0.0610,0.6254,0.6374,-0.3741,0.7122,-1.3022,-0.3352,0.0001,0.1025,25.25469833,83.00756833,11.45771694,
18.6210,-0.0610,0.6254,0.6374,-0.3741,0.7122,-1.3022,1.1576,-0.0338,-0.9762,25.25469833,83.00756833,11.45771694,
18.6260,-0.0610,0.6254,0.6374,-0.8923,0.4153,-1.9113,1.1576,-0.0338,-0.9762,25.25469833,83.00756833,11.45771694,
18.6300,-0.1000,0.6273,0.6914,-0.8923,0.4153,-1.9113,1.1576,-0.0338,-0.9762,25.25469833,83.00756833,11.45771694,
18.6870,-0.1000,0.6273,0.6914,-0.8923,0.4153,-1.9113,0.7717,0.0048,-0.5009,25.25469833,83.00756833,11.45771694,
18.6920,-0.1000,0.6273,0.6914,0.1894,0.1048,-2.0218,0.7717,0.0048,-0.5009,25.25469833,83.00756833,11.45771694,
18.6940,-0.0169,0.6624,0.5253,0.1894,0.1048,-2.0218,0.7717,0.0048,-0.5009,25.25469833,83.00756833,11.45771694,
18.7540,-0.0169,0.6624,0.5253,0.1894,0.1048,-2.0218,0.0659,-0.0032,0.0355,25.25469833,83.00756833,11.45771694,
18.7560,-0.0169,0.6624,0.5253,0.0921,-0.5599,0.9804,0.0659,-0.0032,0.0355,25.25469833,83.00756833,11.45771694,
18.7600,-0.0419,0.6094,0.8446,0.0921,-0.5599,0.9804,0.0659,-0.0032,0.0355,25.25469833,83.00756833,11.45771694,
18.8190,-0.0419,0.6094,0.8446,0.0921,-0.5599,0.9804,0.3582,0.0058,-0.1748,25.25469833,83.00756833,11.45771694,
18.8230,-0.0419,0.6094,0.8446,-0.2789,0.1550,-0.2091,0.3582,0.0058,-0.1748,25.25469833,83.00756833,11.45771694,
18.8260,-0.0680,0.6474,0.8486,-0.2789,0.1550,-0.2091,0.3582,0.0058,-0.1748,25.25469833,83.00756833,11.45771694,
18.8850,-0.0680,0.6474,0.8486,-0.2789,0.1550,-0.2091,-0.3819,-0.0107,0.2414,25.25469833,83.00756833,11.45771694,
18.8890,-0.0680,0.6474,0.8486,0.2939,-0.4764,-0.6515,-0.3819,-0.0107,0.2414,25.25469833,83.00756833,11.45771694,
18.8910,-0.0290,0.6604,0.5353,0.2939,-0.4764,-0.6515,-0.3819,-0.0107,0.2414,25.25469833,83.00756833,11.45771694,
18.9520,-0.0290,0.6604,0.5353,0.2939,-0.4764,-0.6515,0.4358,0.0179,-0.0056,25.25469833,83.00756833,11.45771694,
18.9560,-0.0290,0.6604,0.5353,0.4711,-0.8677,1.2261,0.4358,0.0179,-0.0056,25.25469833,83.00756833,11.45771694,
18.9580,0.0000,0.5904,0.8586,0.4711,-0.8677,1.2261,0.4358,0.0179,-0.0056,25.25469833,83.00756833,11.45771694,
19.0170,0.0000,0.5904,0.8586,0.4711,-0.8677,1.2261,-0.3432,0.0360,0.4974,25.25469833,83.00756833,11.45771694,
19.0210,0.0000,0.5904,0.8586,-0.4017,0.3907,1.6946,-0.3432,0.0360,0.4974,25.25469833,83.00756833,11.45771694,
19.0230,-0.0780,0.6554,1.0527,-0.4017,0.3907,1.6946,-0.3432,0.0360,0.4974,25.25469833,83.00756833,11.45771694,
19.0830,-0.0780,0.6554,1.0527,-0.4017,0.3907,1.6946,-0.5107,0.0492,0.1200,25.25469833,83.00756833,11.45771694,
19.0850,-0.0780,0.6554,1.0527,0.0862,0.2960,-1.1017,-0.5107,0.0492,0.1200,25.25469833,83.00756833,11.45771694,
19.0930,-0.0310,0.7224,0.5603,0.0862,0.2960,-1.1017,-0.5107,0.0492,0.1200,25.25469833,83.00756833,11.45771694,
19.1530,-0.0310,0.7224,0.5603,0.0862,0.2960,-1.1017,0.5400,0.0242,-0.3297,25.25469833,83.00756833,11.45771694,
19.1560,-0.0310,0.7224,0.5603,0.2976,-0.5602,0.3235,0.5400,0.0242,-0.3297,25.25469833,83.00756833,11.45771694,
19.1590,-0.0100,0.5954,0.7905,0.2976,-0.5602,0.3235,0.5400,0.0242,-0.3297,25.25469833,83.00756833,11.45771694,
19.2140,-0.0100,0.5954,0.7905,0.2976,-0.5602,0.3235,1.0358,-0.1233,0.6661,25.25469833,83.00756833,11.45771694,
19.2160,-0.0100,0.5954,0.7905,0.5815,0.0803,-1.5640,1.0358,-0.1233,0.6661,25.25468000,83.00766833,10.97181892,
19.2230,0.0469,0.6935,0.5694,0.5815,0.0803,-1.5640,1.0358,-0.1233,0.6661,25.25468000,83.00766833,10.97181892,
19.2800,0.0469,0.6935,0.5694,0.5815,0.0803,-1.5640,-1.1825,0.1431,0.2617,25.25468000,83.00766833,10.97181892,
19.2830,0.0469,0.6935,0.5694,0.1714,0.3152,1.7313,-1.1825,0.1431,0.2617,25.25468000,83.00766833,10.97181892,
19.2870,-0.0600,0.6794,0.9906,0.1714,0.3152,1.7313,-1.1825,0.1431,0.2617,25.25468000,83.00766833,10.97181892,
19.3480,-0.0600,0.6794,0.9906,0.1714,0.3152,1.7313,-1.1404,0.1836,-0.4674,25.25468000,83.00766833,10.97181892,
19.3500,-0.0600,0.6794,0.9906,-0.4766,0.4820,2.6686,-1.1404,0.1836,-0.4674,25.25468000,83.00766833,10.97181892,
19.3540,-0.0130,0.5754,0.7845,-0.4766,0.4820,2.6686,-1.1404,0.1836,-0.4674,25.25468000,83.00766833,10.97181892,
19.4120,-0.0130,0.5754,0.7845,-0.4766,0.4820,2.6686,0.3268,0.0042,-0.5760,25.25468000,83.00766833,10.97181892,
19.4160,-0.0130,0.5754,0.7845,-0.1669,0.4310,-1.0503,0.3268,0.0042,-0.5760,25.25468000,83.00766833,10.97181892,
19.4350,-0.0340,0.6164,0.5484,-0.1669,0.4310,-1.0503,0.3268,0.0042,-0.5760,25.25468000,83.00766833,10.97181892,
19.4790,-0.0340,0.6164,0.5484,-0.1669,0.4310,-1.0503,1.3910,-0.0525,-0.1468,25.25468000,83.00766833,10.97181892,
19.4820,-0.0340,0.6164,0.5484,0.0647,0.1484,-1.4627,1.3910,-0.0525,-0.1468,25.25468000,83.00766833,10.97181892,
19.4850,-0.0080,0.6574,0.6754,0.0647,0.1484,-1.4627,1.3910,-0.0525,-0.1468,25.25468000,83.00766833,10.97181892,
19.5470,-0.0080,0.6574,0.6754,0.0647,0.1484,-1.4627,0.7355,-0.1610,0.5056,25.25468000,83.00766833,10.97181892,
19.5510,-0.0080,0.6574,0.6754,0.7422,-0.7460,-1.2381,0.7355,-0.1610,0.5056,25.25468000,83.00766833,10.97181892,
19.5520,-0.0200,0.6374,0.7565,0.7422,-0.7460,-1.2381,0.7355,-0.1610,0.5056,25.25468000,83.00766833,10.97181892,
19.6100,-0.0200,0.6374,0.7565,0.7422,-0.7460,-1.2381,-0.3557,-0.0367,0.1850,25.25468000,83.00766833,10.97181892,
19.6120,-0.0200,0.6374,0.7565,0.1449,-0.7532,-0.1483,-0.3557,-0.0367,0.1850,25.25468000,83.00766833,10.97181892,
19.6170,0.0319,0.5673,0.6654,0.1449,-0.7532,-0.1483,-0.3557,-0.0367,0.1850,25.25468000,83.00766833,10.97181892,
19.6770,0.0319,0.5673,0.6654,0.1449,-0.7532,-0.1483,-0.6480,-0.0246,0.3500,25.25468000,83.00766833,10.97181892,
19.6830,0.0319,0.5673,0.6654,0.0447,-0.8217,-0.0710,-0.6480,-0.0246,0.3500,25.25468000,83.00766833,10.97181892,
19.6860,0.0430,0.5363,0.7285,0.0447,-0.8217,-0.0710,-0.6480,-0.0246,0.3500,25.25468000,83.00766833,10.97181892,
19.7440,0.0430,0.5363,0.7285,0.0447,-0.8217,-0.0710,0.1318,-0.0751,0.6806,25.25468000,83.00766833,10.97181892,
19.7460,0.0430,0.5363,0.7285,0.1729,-0.3337,-1.6197,0.1318,-0.0751,0.6806,25.25468000,83.00766833,10.97181892,
19.7500,-0.0080,0.6635,0.6694,0.1729,-0.3337,-1.6197,0.1318,-0.0751,0.6806,25.25468000,83.00766833,10.97181892,
19.8100,-0.0080,0.6635,0.6694,0.1729,-0.3337,-1.6197,0.0723,0.0169,-0.1035,25.25468000,83.00766833,10.97181892,
19.8150,-0.0080,0.6635,0.6694,0.0936,-0.5013,-0.1476,0.0723,0.0169,-0.1035,25.25468000,83.00766833,10.97181892,
19.8170,0.1040,0.5594,0.6544,0.0936,-0.5013,-0.1476,0.0723,0.0169,-0.1035,25.25468000,83.00766833,10.97181892,
19.8750,0.1040,0.5594,0.6544,0.0936,-0.5013,-0.1476,-0.6068,0.0885,0.4024,25.25468000,83.00766833,10.97181892,
19.8790,0.1040,0.5594,0.6544,-0.0684,0.1004,0.6737,-0.6068,0.0885,0.4024,25.25468000,83.00766833,10.97181892,
19.8830,0.0390,0.6394,0.8455,-0.0684,0.1004,0.6737,-0.6068,0.0885,0.4024,25.25468000,83.00766833,10.97181892,
19.9420,0.0390,0.6394,0.8455,-0.0684,0.1004,0.6737,-1.2056,0.3320,-0.9644,25.25468000,83.00766833,10.97181892,
19.9450,0.0390,0.6394,0.8455,-1.7814,0.6112,5.4642,-1.2056,0.3320,-0.9644,25.25468000,83.00766833,10.97181892,
19.9470,-0.2251,0.6374,1.2468,-1.7814,0.6112,5.4642,-1.2056,0.3320,-0.9644,25.25468000,83.00766833,10.97181892,
20.0070,-0.2251,0.6374,1.2468,-1.7814,0.6112,5.4642,-0.4249,0.2304,-1.4199,25.25468000,83.00766833,10.97181892,
20.0100,-0.2251,0.6374,1.2468,-0.5311,0.5742,0.1062,-0.4249,0.2304,-1.4199,25.25468000,83.00766833,10.97181892,
20.0130,-0.0540,0.5473,0.8026,-0.5311,0.5742,0.1062,-0.4249,0.2304,-1.4199,25.25468000,83.00766833,10.97181892,
20.0720,-0.0540,0.5473,0.8026,-0.5311,0.5742,0.1062,0.5107,-0.0055,-0.2327,25.25468000,83.00766833,10.97181892,
20.0750,-0.0540,0.5473,0.8026,-0.6911,0.4751,-0.6363,0.5107,-0.0055,-0.2327,25.25468000,83.00766833,10.97181892,
20.0810,-0.1510,0.5994,0.7665,-0.6911,0.4751,-0.6363,0.5107,-0.0055,-0.2327,25.25468000,83.00766833,10.97181892,
20.1550,-0.1510,0.5994,0.7665,-0.6911,0.4751,-0.6363,0.8686,-0.0081,-0.0530,25.25468000,83.00766833,10.97181892,
20.1560,-0.1510,0.5994,0.7665,1.2486,-0.3618,-3.7397,0.8686,-0.0081,-0.0530,25.25468000,83.00766833,10.97181892,
20.1590,0.0610,0.6123,0.2541,1.2486,-0.3618,-3.7397,0.8686,-0.0081,-0.0530,25.25468000,83.00766833,10.97181892,
20.2050,0.0610,0.6123,0.2541,1.2486,-0.3618,-3.7397,1.5500,-0.1762,1.1548,25.25468000,83.00766833,10.97181892,
20.2080,0.0610,0.6123,0.2541,0.8487,-1.0494,-0.3947,1.5500,-0.1762,1.1548,25.25465500,83.00777500,10.60327816,
20.2110,0.0890,0.5594,0.6164,0.8487,-1.0494,-0.3947,1.5500,-0.1762,1.1548,25.25465500,83.00777500,10.60327816,
20.2700,0.0890,0.5594,0.6164,0.8487,-1.0494,-0.3947,0.7186,-0.0561,0.5567,25.25465500,83.00777500,10.60327816,
20.2720,0.0890,0.5594,0.6164,-1.2270,0.0868,2.4614,0.7186,-0.0561,0.5567,25.25465500,83.00777500,10.60327816,
20.2770,-0.1031,0.7385,0.9356,-1.2270,0.0868,2.4614,0.7186,-0.0561,0.5567,25.25465500,83.00777500,10.60327816,
20.3390,-0.1031,0.7385,0.9356,-1.2270,0.0868,2.4614,-2.3531,0.3066,-0.7057,25.25465500,83.00777500,10.60327816,
20.3420,-0.1031,0.7385,0.9356,-0.4305,-0.3543,1.7689,-2.3531,0.3066,-0.7057,25.25465500,83.00777500,10.60327816,
20.3440,-0.0710,0.5923,0.9587,-0.4305,-0.3543,1.7689,-2.3531,0.3066,-0.7057,25.25465500,83.00777500,10.60327816,
20.4020,-0.0710,0.5923,0.9587,-0.4305,-0.3543,1.7689,1.0245,0.1325,-0.9387,25.25465500,83.00777500,10.60327816,
20.4050,-0.0710,0.5923,0.9587,-0.4607,1.2003,-2.2261,1.0245,0.1325,-0.9387,25.25465500,83.00777500,10.60327816,
20.4090,-0.2011,0.7174,0.8145,-0.4607,1.2003,-2.2261,1.0245,0.1325,-0.9387,25.25465500,83.00777500,10.60327816,
20.4690,-0.2011,0.7174,0.8145,-0.4607,1.2003,-2.2261,-1.1904,0.0121,-1.1898,25.25465500,83.00777500,10.60327816,
20.4730,-0.2011,0.7174,0.8145,-0.5873,-0.9403,3.0097,-1.1904,0.0121,-1.1898,25.25465500,83.00777500,10.60327816,
20.4750,0.0209,0.6044,0.4272,-0.5873,-0.9403,3.0097,-1.1904,0.0121,-1.1898,25.25465500,83.00777500,10.60327816,
20.5360,0.0209,0.6044,0.4272,-0.5873,-0.9403,3.0097,1.8501,0.0096,0.3015,25.25465500,83.00777500,10.60327816,
20.5410,0.0209,0.6044,0.4272,-0.2576,-0.4818,6.3445,1.8501,0.0096,0.3015,25.25465500,83.00777500,10.60327816,
20.5420,-0.1320,0.6585,1.3469,-0.2576,-0.4818,6.3445,1.8501,0.0096,0.3015,25.25465500,83.00777500,10.60327816,
20.6020,-0.1320,0.6585,1.3469,-0.2576,-0.4818,6.3445,-0.9522,-0.2838,2.1136,25.25465500,83.00777500,10.60327816,
20.6060,-0.1320,0.6585,1.3469,1.5311,0.6650,-7.6152,-0.9522,-0.2838,2.1136,25.25465500,83.00777500,10.60327816,
20.6080,-0.0730,0.8596,0.4222,1.5311,0.6650,-7.6152,-0.9522,-0.2838,2.1136,25.25465500,83.00777500,10.60327816,
20.6670,-0.0730,0.8596,0.4222,1.5311,0.6650,-7.6152,-1.3248,0.0570,0.0608,25.25465500,83.00777500,10.60327816,
20.6720,-0.0730,0.8596,0.4222,0.3675,-0.8734,5.0413,-1.3248,0.0570,0.0608,25.25465500,83.00777500,10.60327816,
20.6740,0.1270,0.5423,0.9747,0.3675,-0.8734,5.0413,-1.3248,0.0570,0.0608,25.25465500,83.00777500,10.60327816,
20.7340,0.1270,0.5423,0.9747,0.3675,-0.8734,5.0413,-1.5567,0.1761,-0.1768,25.25465500,83.00777500,10.60327816,
20.7370,0.1270,0.5423,0.9747,-0.4008,-0.0997,1.7069,-1.5567,0.1761,-0.1768,25.25465500,83.00777500,10.60327816,
20.7410,-0.0530,0.5403,1.0097,-0.4008,-0.0997,1.7069,-1.5567,0.1761,-0.1768,25.25465500,83.00777500,10.60327816,
20.7990,-0.0530,0.5403,1.0097,-0.4008,-0.0997,1.7069,1.5929,-0.1069,-0.3720,25.25465500,83.00777500,10.60327816,
20.8040,-0.0530,0.5403,1.0097,-0.6512,1.5093,-5.2142,1.5929,-0.1069,-0.3720,25.25465500,83.00777500,10.60327816,
20.8060,-0.0860,0.7505,0.2711,-0.6512,1.5093,-5.2142,1.5929,-0.1069,-0.3720,25.25465500,83.00777500,10.60327816,
20.8650,-0.0860,0.7505,0.2711,-0.6512,1.5093,-5.2142,0.1254,-0.0110,-0.4538,25.25465500,83.00777500,10.60327816,
20.8710,-0.0860,0.7505,0.2711,0.3183,-0.8166,1.1927,0.1254,-0.0110,-0.4538,25.25465500,83.00777500,10.60327816,
20.8730,-0.0830,0.6314,0.8165,0.3183,-0.8166,1.1927,0.1254,-0.0110,-0.4538,25.25465500,83.00777500,10.60327816,
20.9480,-0.0640,0.5163,0.9556,0.3183,-0.8166,1.1927,0.1254,-0.0110,-0.4538,25.25465500,83.00777500,10.60327816,
20.9630,-0.0640,0.5163,0.9556,0.3183,-0.8166,1.1927,-0.3206,0.0591,-0.8805,25.25465500,83.00777500,10.60327816,
20.9650,-0.0640,0.5163,0.9556,0.2325,-0.9123,1.6348,-0.3206,0.0591,-0.8805,25.25465500,83.00777500,10.60327816,
20.9960,-0.0640,0.5163,0.9556,0.2325,-0.9123,1.6348,-1.3990,-0.1083,-0.2681,25.25465500,83.00777500,10.60327816,
21.0010,-0.0640,0.5163,0.9556,-0.1287,-0.9818,1.5678,-1.3990,-0.1083,-0.2681,25.25465500,83.00777500,10.60327816,
21.0040,-0.1010,0.4583,0.9856,-0.1287,-0.9818,1.5678,-1.3990,-0.1083,-0.2681,25.25465500,83.00777500,10.60327816,
21.0620,-0.1010,0.4583,0.9856,-0.1287,-0.9818,1.5678,-0.0710,-0.1598,0.3142,25.25465500,83.00777500,10.60327816,
21.0640,-0.1010,0.4583,0.9856,0.6392,-0.1766,-1.6928,-0.0710,-0.1598,0.3142,25.25465500,83.00777500,10.60327816,
21.0730,0.0000,0.5163,0.8276,0.6392,-0.1766,-1.6928,-0.0710,-0.1598,0.3142,25.25465500,83.00777500,10.60327816,
21.1300,0.0000,0.5163,0.8276,0.6392,-0.1766,-1.6928,-0.2396,-0.1267,0.0091,25.25465500,83.00777500,10.60327816,
21.1320,0.0000,0.5163,0.8276,0.2610,0.3072,1.0861,-0.2396,-0.1267,0.0091,25.25465333,83.00788333,10.21620655,
21.1350,-0.0290,0.5534,0.9627,0.2610,0.3072,1.0861,-0.2396,-0.1267,0.0091,25.25465333,83.00788333,10.21620655,
21.1360,-0.0290,0.5534,0.9627,0.2610,0.3072,1.0861,-0.2396,-0.1267,0.0091,25.25465333,83.00788333,10.21620655,
21.1360,-0.0290,0.5534,0.9627,0.2610,0.3072,1.0861,-0.2396,-0.1267,0.0091,25.25465333,83.00788333,10.21620655,
21.1370,-0.0290,0.5534,0.9627,0.2610,0.3072,1.0861,-0.2396,-0.1267,0.0091,25.25465333,83.00788333,10.21620655,
21.1370,-0.0290,0.5534,0.9627,0.2610,0.3072,1.0861,-0.2396,-0.1267,0.0091,25.25465333,83.00788333,10.21620655,
21.1380,-0.0290,0.5534,0.9627,0.2610,0.3072,1.0861,-0.2396,-0.1267,0.0091,25.25465333,83.00788333,10.21620655,
21.1450,0.0640,0.5763,0.8215,0.2610,0.3072,1.0861,-0.2396,-0.1267,0.0091,25.25465333,83.00788333,10.21620655,
21.1550,0.0760,0.6123,0.7424,0.2610,0.3072,1.0861,-0.2396,-0.1267,0.0091,25.25465333,83.00788333,10.21620655,
21.1650,0.0870,0.6194,0.6764,0.2610,0.3072,1.0861,-0.2396,-0.1267,0.0091,25.25465333,83.00788333,10.21620655,
21.1750,0.0810,0.6154,0.7295,0.2610,0.3072,1.0861,-0.2396,-0.1267,0.0091,25.25465333,83.00788333,10.21620655,
21.1850,0.0400,0.6104,0.8446,0.2610,0.3072,1.0861,-0.2396,-0.1267,0.0091,25.25465333,83.00788333,10.21620655,
21.1940,0.0400,0.6104,0.8446,0.2610,0.3072,1.0861,0.5576,-0.2389,0.8699,25.25465333,83.00788333,10.21620655,
21.1950,0.0400,0.6104,0.8446,0.2610,0.3072,1.0861,0.5576,-0.2389,0.8699,25.25465333,83.00788333,10.21620655,
21.1960,0.0400,0.6104,0.8446,0.2610,0.3072,1.0861,0.5576,-0.2389,0.8699,25.25465333,83.00788333,10.21620655,
21.1960,0.0400,0.6104,0.8446,0.2610,0.3072,1.0861,0.5576,-0.2389,0.8699,25.25465333,83.00788333,10.21620655,
21.1970,0.0400,0.6104,0.8446,0.2610,0.3072,1.0861,0.5576,-0.2389,0.8699,25.25465333,83.00788333,10.21620655,
21.1970,0.0400,0.6104,0.8446,0.2610,0.3072,1.0861,0.5576,-0.2389,0.8699,25.25465333,83.00788333,10.21620655,
21.1980,0.0400,0.6104,0.8446,0.2610,0.3072,1.0861,0.5576,-0.2389,0.8699,25.25465333,83.00788333,10.21620655,
21.1980,0.0200,0.6023,0.9177,0.2610,0.3072,1.0861,0.5576,-0.2389,0.8699,25.25465333,83.00788333,10.21620655,
21.2040,0.0200,0.6023,0.9177,0.2610,0.3072,1.0861,0.5576,-0.2389,0.8699,25.25465333,83.00788333,10.21620655,
21.2060,-0.0109,0.5963,0.9416,0.2610,0.3072,1.0861,0.5576,-0.2389,0.8699,25.25465333,83.00788333,10.21620655,
21.2140,-0.0109,0.5963,0.9416,0.2610,0.3072,1.0861,0.4741,-0.2154,0.7578,25.25465333,83.00788333,10.21620655,
21.2150,0.0040,0.5854,0.9146,0.2610,0.3072,1.0861,0.4741,-0.2154,0.7578,25.25465333,83.00788333,10.21620655,
21.2240,0.0040,0.5854,0.9146,0.2610,0.3072,1.0861,0.3514,-0.1781,0.6347,25.25465333,83.00788333,10.21620655,
21.2250,0.0460,0.5684,0.8565,0.2610,0.3072,1.0861,0.3514,-0.1781,0.6347,25.25465333,83.00788333,10.21620655,
21.2340,0.0460,0.5684,0.8565,0.2610,0.3072,1.0861,0.2586,-0.1502,0.5959,25.25465333,83.00788333,10.21620655,
21.2350,0.0640,0.5684,0.7855,0.2610,0.3072,1.0861,0.2586,-0.1502,0.5959,25.25465333,83.00788333,10.21620655,
21.2440,0.0640,0.5684,0.7855,0.2610,0.3072,1.0861,0.2332,-0.1363,0.6121,25.25465333,83.00788333,10.21620655,
21.2450,0.0640,0.5684,0.7855,0.6291,0.1244,-0.4572,0.2332,-0.1363,0.6121,25.25465333,83.00788333,10.21620655,
21.2460,0.0720,0.5713,0.7155,0.6291,0.1244,-0.4572,0.2332,-0.1363,0.6121,25.25465333,83.00788333,10.21620655,
21.2540,0.0720,0.5713,0.7155,0.6291,0.1244,-0.4572,0.2785,-0.1462,0.6329,25.25465333,83.00788333,10.21620655,
21.2550,0.0720,0.5963,0.6484,0.6291,0.1244,-0.4572,0.2785,-0.1462,0.6329,25.25465333,83.00788333,10.21620655,
21.2640,0.0720,0.5963,0.6484,0.6291,0.1244,-0.4572,0.4089,-0.1593,0.6516,25.25465333,83.00788333,10.21620655,
21.2650,0.0540,0.6184,0.6304,0.6291,0.1244,-0.4572,0.4089,-0.1593,0.6516,25.25465333,83.00788333,10.21620655,
21.2740,0.0540,0.6184,0.6304,0.6291,0.1244,-0.4572,0.5804,-0.1663,0.6270,25.25465333,83.00788333,10.21620655,
21.2750,0.0310,0.6374,0.6454,0.6291,0.1244,-0.4572,0.5804,-0.1663,0.6270,25.25465333,83.00788333,10.21620655,
21.2840,0.0310,0.6374,0.6454,0.6291,0.1244,-0.4572,0.7449,-0.1639,0.5451,25.25465333,83.00788333,10.21620655,
21.2850,0.0119,0.6374,0.6334,0.6291,0.1244,-0.4572,0.7449,-0.1639,0.5451,25.25465333,83.00788333,10.21620655,
21.2940,0.0119,0.6374,0.6334,0.6291,0.1244,-0.4572,0.8789,-0.1689,0.3944,25.25465333,83.00788333,10.21620655,
21.2950,0.0319,0.6294,0.6273,0.6291,0.1244,-0.4572,0.8789,-0.1689,0.3944,25.25465333,83.00788333,10.21620655,
21.3040,0.0319,0.6294,0.6273,0.6291,0.1244,-0.4572,0.9743,-0.1519,0.3036,25.25465333,83.00788333,10.21620655,
21.3060,0.0319,0.6294,0.6273,0.0691,0.2672,-1.6801,0.9743,-0.1519,0.3036,25.25465333,83.00788333,10.21620655,
21.3070,0.0550,0.5944,0.6504,0.0691,0.2672,-1.6801,0.9743,-0.1519,0.3036,25.25465333,83.00788333,10.21620655,
21.3140,0.0550,0.5944,0.6504,0.0691,0.2672,-1.6801,0.9809,-0.1414,0.2802,25.25465333,83.00788333,10.21620655,
21.3150,0.0710,0.5823,0.6895,0.0691,0.2672,-1.6801,0.9809,-0.1414,0.2802,25.25465333,83.00788333,10.21620655,
21.3240,0.0710,0.5823,0.6895,0.0691,0.2672,-1.6801,0.9040,-0.1359,0.3099,25.25465333,83.00788333,10.21620655,
21.3260,0.0580,0.6014,0.7095,0.0691,0.2672,-1.6801,0.9040,-0.1359,0.3099,25.25465333,83.00788333,10.21620655,
21.3350,0.0580,0.6014,0.7095,0.0691,0.2672,-1.6801,0.8012,-0.1161,0.3431,25.25465333,83.00788333,10.21620655,
21.3380,0.0469,0.6034,0.7255,0.0691,0.2672,-1.6801,0.8012,-0.1161,0.3431,25.25465333,83.00788333,10.21620655,
21.3440,0.0469,0.6034,0.7255,0.0691,0.2672,-1.6801,0.6867,-0.1011,0.3321,25.25465333,83.00788333,10.21620655,
21.3450,0.0430,0.5984,0.7445,0.0691,0.2672,-1.6801,0.6867,-0.1011,0.3321,25.25465333,83.00788333,10.21620655,
21.3540,0.0430,0.5984,0.7445,0.0691,0.2672,-1.6801,0.5623,-0.0750,0.3084,25.25465333,83.00788333,10.21620655,
21.3550,0.0200,0.6014,0.7835,0.0691,0.2672,-1.6801,0.5623,-0.0750,0.3084,25.25465333,83.00788333,10.21620655,
21.3640,0.0200,0.6014,0.7835,0.0691,0.2672,-1.6801,0.4175,-0.0221,0.2678,25.25465333,83.00788333,10.21620655,
21.3650,0.0200,0.6014,0.7835,-0.1913,-0.2710,0.0618,0.4175,-0.0221,0.2678,25.25465333,83.00788333,10.21620655,
21.3660,-0.0140,0.6073,0.8476,-0.1913,-0.2710,0.0618,0.4175,-0.0221,0.2678,25.25465333,83.00788333,10.21620655,
21.3740,-0.0140,0.6073,0.8476,-0.1913,-0.2710,0.0618,0.2363,0.0167,0.1348,25.25465333,83.00788333,10.21620655,
21.3750,-0.0569,0.6223,0.9687,-0.1913,-0.2710,0.0618,0.2363,0.0167,0.1348,25.25465333,83.00788333,10.21620655,
21.3850,-0.1070,0.6294,1.0527,-0.1913,-0.2710,0.0618,0.2363,0.0167,0.1348,25.25465333,83.00788333,10.21620655,
21.3870,-0.1070,0.6294,1.0527,-0.1913,-0.2710,0.0618,-0.0098,0.0864,-0.0513,25.25465333,83.00788333,10.21620655,
21.3940,-0.1070,0.6294,1.0527,-0.1913,-0.2710,0.0618,-0.2946,0.1647,-0.3116,25.25465333,83.00788333,10.21620655,
21.3950,-0.1220,0.6314,1.0817,-0.1913,-0.2710,0.0618,-0.2946,0.1647,-0.3116,25.25465333,83.00788333,10.21620655,
21.4040,-0.1220,0.6314,1.0817,-0.1913,-0.2710,0.0618,-0.5585,0.2278,-0.5864,25.25465333,83.00788333,10.21620655,
21.4060,-0.1191,0.6264,1.0397,-0.1913,-0.2710,0.0618,-0.5585,0.2278,-0.5864,25.25465333,83.00788333,10.21620655,
21.4140,-0.1191,0.6264,1.0397,-0.1913,-0.2710,0.0618,-0.7315,0.2692,-0.7987,25.25465333,83.00788333,10.21620655,
21.4150,-0.0870,0.6234,0.9336,-0.1913,-0.2710,0.0618,-0.7315,0.2692,-0.7987,25.25465333,83.00788333,10.21620655,
21.4240,-0.0870,0.6234,0.9336,-0.1913,-0.2710,0.0618,-0.7574,0.2812,-0.8936,25.25465333,83.00788333,10.21620655,
21.4250,-0.0870,0.6234,0.9336,-0.8267,0.2744,1.2676,-0.7574,0.2812,-0.8936,25.25465333,83.00788333,10.21620655,
21.4260,-0.0630,0.6344,0.8355,-0.8267,0.2744,1.2676,-0.7574,0.2812,-0.8936,25.25465333,83.00788333,10.21620655,
21.4350,-0.0630,0.6344,0.8355,-0.8267,0.2744,1.2676,-0.6392,0.2546,-0.9027,25.25465333,83.00788333,10.21620655,
21.4370,-0.0219,0.6394,0.8145,-0.8267,0.2744,1.2676,-0.6392,0.2546,-0.9027,25.25465333,83.00788333,10.21620655,
21.4440,-0.0219,0.6394,0.8145,-0.8267,0.2744,1.2676,-0.4571,0.2059,-0.8039,25.25465333,83.00788333,10.21620655,
21.4450,0.0250,0.6234,0.7624,-0.8267,0.2744,1.2676,-0.4571,0.2059,-0.8039,25.25465333,83.00788333,10.21620655,
21.4540,0.0250,0.6234,0.7624,-0.8267,0.2744,1.2676,-0.2678,0.1462,-0.5972,25.25465333,83.00788333,10.21620655,
21.4550,0.0569,0.6004,0.6914,-0.8267,0.2744,1.2676,-0.2678,0.1462,-0.5972,25.25465333,83.00788333,10.21620655,
21.4640,0.0569,0.6004,0.6914,-0.8267,0.2744,1.2676,-0.0782,0.0837,-0.3272,25.25465333,83.00788333,10.21620655,
21.4650,0.0569,0.6004,0.6895,-0.8267,0.2744,1.2676,-0.0782,0.0837,-0.3272,25.25465333,83.00788333,10.21620655,
21.4740,0.0569,0.6004,0.6895,-0.8267,0.2744,1.2676,0.0868,0.0277,-0.0810,25.25465333,83.00788333,10.21620655,
21.4750,0.0540,0.5984,0.8015,-0.8267,0.2744,1.2676,0.0868,0.0277,-0.0810,25.25465333,83.00788333,10.21620655,
21.4840,0.0540,0.5984,0.8015,-0.8267,0.2744,1.2676,0.1474,0.0061,-0.0054,25.25465333,83.00788333,10.21620655,
21.4860,0.0540,0.5984,0.8015,-0.1364,0.1325,-0.0006,0.1474,0.0061,-0.0054,25.25465333,83.00788333,10.21620655,
21.4870,-0.0870,0.6173,0.9286,-0.1364,0.1325,-0.0006,0.1474,0.0061,-0.0054,25.25465333,83.00788333,10.21620655,
21.4940,-0.0870,0.6173,0.9286,-0.1364,0.1325,-0.0006,0.0757,0.0167,-0.0884,25.25465333,83.00788333,10.21620655,
21.4950,-0.0780,0.6173,1.0216,-0.1364,0.1325,-0.0006,0.0757,0.0167,-0.0884,25.25465333,83.00788333,10.21620655,
21.5040,-0.0780,0.6173,1.0216,-0.1364,0.1325,-0.0006,-0.1454,0.0289,-0.2490,25.25465333,83.00788333,10.21620655,
21.5060,-0.0881,0.5703,1.0567,-0.1364,0.1325,-0.0006,-0.1454,0.0289,-0.2490,25.25465333,83.00788333,10.21620655,
21.5140,-0.0881,0.5703,1.0567,-0.1364,0.1325,-0.0006,-0.4328,0.0619,-0.3542,25.25465333,83.00788333,10.21620655,
21.5150,-0.0790,0.5313,1.0487,-0.1364,0.1325,-0.0006,-0.4328,0.0619,-0.3542,25.25465333,83.00788333,10.21620655,
21.5240,-0.0790,0.5313,1.0487,-0.1364,0.1325,-0.0006,-0.6966,0.0790,-0.3747,25.25465333,83.00788333,10.21620655,
21.5250,-0.0490,0.5013,1.0137,-0.1364,0.1325,-0.0006,-0.6966,0.0790,-0.3747,25.25465333,83.00788333,10.21620655,
21.5340,-0.0490,0.5013,1.0137,-0.1364,0.1325,-0.0006,-0.8404,0.0745,-0.3000,25.25465333,83.00788333,10.21620655,
21.5370,-0.0090,0.4883,0.9086,-0.1364,0.1325,-0.0006,-0.8404,0.0745,-0.3000,25.25465333,83.00788333,10.21620655,
21.5440,-0.0090,0.4883,0.9086,-0.1364,0.1325,-0.0006,-0.8387,0.0538,-0.1521,25.25465333,83.00788333,10.21620655,
21.5450,-0.0090,0.4883,0.9086,0.4402,-0.7130,-0.2673,-0.8387,0.0538,-0.1521,25.25465333,83.00788333,10.21620655,
21.5460,0.0200,0.4873,0.8015,0.4402,-0.7130,-0.2673,-0.8387,0.0538,-0.1521,25.25465333,83.00788333,10.21620655,
21.5540,0.0200,0.4873,0.8015,0.4402,-0.7130,-0.2673,-0.7297,0.0304,0.0036,25.25465333,83.00788333,10.21620655,
21.5550,0.0209,0.5053,0.7655,0.4402,-0.7130,-0.2673,-0.7297,0.0304,0.0036,25.25465333,83.00788333,10.21620655,
21.5640,0.0209,0.5053,0.7655,0.4402,-0.7130,-0.2673,-0.5644,-0.0010,0.0775,25.25465333,83.00788333,10.21620655,
21.5650,0.0009,0.5273,0.7535,0.4402,-0.7130,-0.2673,-0.5644,-0.0010,0.0775,25.25465333,83.00788333,10.21620655,
21.5740,0.0009,0.5273,0.7535,0.4402,-0.7130,-0.2673,-0.3896,-0.0057,0.0457,25.25465333,83.00788333,10.21620655,
21.5760,-0.0469,0.5613,0.7865,0.4402,-0.7130,-0.2673,-0.3896,-0.0057,0.0457,25.25465333,83.00788333,10.21620655,
21.5850,-0.1181,0.5834,0.8926,0.4402,-0.7130,-0.2673,-0.3896,-0.0057,0.0457,25.25465333,83.00788333,10.21620655,
21.5860,-0.1181,0.5834,0.8926,0.4402,-0.7130,-0.2673,-0.2791,0.0158,-0.1405,25.25465333,83.00788333,10.21620655,
21.5940,-0.1181,0.5834,0.8926,0.4402,-0.7130,-0.2673,-0.2590,0.0486,-0.3901,25.25465333,83.00788333,10.21620655,
21.5950,-0.1360,0.5694,0.9487,0.4402,-0.7130,-0.2673,-0.2590,0.0486,-0.3901,25.25465333,83.00788333,10.21620655,
21.6040,-0.1360,0.5694,0.9487,0.4402,-0.7130,-0.2673,-0.3160,0.0616,-0.5789,25.25465333,83.00788333,10.21620655,
21.6050,-0.1360,0.5694,0.9487,-0.7011,-0.1325,1.2231,-0.3160,0.0616,-0.5789,25.25465333,83.00788333,10.21620655,
21.6070,-0.1081,0.5323,0.9627,-0.7011,-0.1325,1.2231,-0.3160,0.0616,-0.5789,25.25465333,83.00788333,10.21620655,
21.6140,-0.1081,0.5323,0.9627,-0.7011,-0.1325,1.2231,-0.4196,0.0700,-0.6519,25.25465333,83.00788333,10.21620655,
21.6150,-0.0881,0.4963,0.9546,-0.7011,-0.1325,1.2231,-0.4196,0.0700,-0.6519,25.25465333,83.00788333,10.21620655,
21.6240,-0.0881,0.4963,0.9546,-0.7011,-0.1325,1.2231,-0.4977,0.0698,-0.6326,25.25465333,83.00788333,10.21620655,
21.6250,-0.0680,0.4813,0.8976,-0.7011,-0.1325,1.2231,-0.4977,0.0698,-0.6326,25.25465333,83.00788333,10.21620655,
21.6340,-0.0680,0.4813,0.8976,-0.7011,-0.1325,1.2231,-0.5075,0.0589,-0.5310,25.25465333,83.00788333,10.21620655,
21.6370,-0.0380,0.4772,0.8276,-0.7011,-0.1325,1.2231,-0.5075,0.0589,-0.5310,25.25465333,83.00788333,10.21620655,
21.6440,-0.0380,0.4772,0.8276,-0.7011,-0.1325,1.2231,-0.4560,0.0348,-0.4231,25.25465333,83.00788333,10.21620655,
21.6450,-0.0360,0.4933,0.8086,-0.7011,-0.1325,1.2231,-0.4560,0.0348,-0.4231,25.25465333,83.00788333,10.21620655,
21.6540,-0.0360,0.4933,0.8086,-0.7011,-0.1325,1.2231,-0.3430,0.0016,-0.3121,25.25465333,83.00788333,10.21620655,
21.6550,-0.0240,0.5113,0.7726,-0.7011,-0.1325,1.2231,-0.3430,0.0016,-0.3121,25.25465333,83.00788333,10.21620655,
21.6650,-0.0240,0.5113,0.7726,-0.7011,-0.1325,1.2231,-0.1783,-0.0178,-0.1664,25.25465333,83.00788333,10.21620655,
21.6680,-0.0240,0.5113,0.7726,0.3759,0.0001,-1.2600,-0.1783,-0.0178,-0.1664,25.25465333,83.00788333,10.21620655,
21.6690,-0.0090,0.5273,0.7205,0.3759,0.0001,-1.2600,-0.1783,-0.0178,-0.1664,25.25465333,83.00788333,10.21620655,
21.6740,-0.0090,0.5273,0.7205,0.3759,0.0001,-1.2600,0.0357,-0.0311,-0.0109,25.25465333,83.00788333,10.21620655,
21.6750,0.0019,0.5434,0.6685,0.3759,0.0001,-1.2600,0.0357,-0.0311,-0.0109,25.25465333,83.00788333,10.21620655,
21.6840,0.0019,0.5434,0.6685,0.3759,0.0001,-1.2600,0.3067,-0.0378,0.1006,25.25465333,83.00788333,10.21620655,
21.6860,-0.0080,0.5754,0.6073,0.3759,0.0001,-1.2600,0.3067,-0.0378,0.1006,25.25465333,83.00788333,10.21620655,
21.6940,-0.0080,0.5754,0.6073,0.3759,0.0001,-1.2600,0.5450,-0.0338,0.1221,25.25465333,83.00788333,10.21620655,
21.6950,-0.0390,0.5994,0.6714,0.3759,0.0001,-1.2600,0.5450,-0.0338,0.1221,25.25465333,83.00788333,10.21620655,
21.7040,-0.0390,0.5994,0.6714,0.3759,0.0001,-1.2600,0.6566,-0.0223,0.0607,25.25465333,83.00788333,10.21620655,
21.7060,-0.0730,0.6004,0.9096,0.3759,0.0001,-1.2600,0.6566,-0.0223,0.0607,25.25465333,83.00788333,10.21620655,
21.7150,-0.0730,0.6004,0.9096,0.3759,0.0001,-1.2600,0.5973,-0.0079,-0.0237,25.25465333,83.00788333,10.21620655,
21.7160,-0.0730,0.6004,0.9096,0.3759,0.0001,-1.2600,0.5973,-0.0079,-0.0237,25.25465333,83.00788333,10.21620655,
21.7240,-0.0730,0.6004,0.9096,0.3759,0.0001,-1.2600,0.4246,-0.0019,-0.0507,25.25465333,83.00788333,10.21620655,
