time,gFx,gFy,gFz,ax,ay,az,wx,wy,wz,P
0.033,-0.16,0.35,0.91,-0.47,-0.72,-0.48,-0.18,-0.04,0.35,0.00
0.033,-0.16,0.35,0.91,-0.47,-0.72,-0.48,0.11,-0.08,0.46,0.00
0.034,-0.19,0.33,0.86,-0.47,-0.72,-0.48,0.11,-0.08,0.46,0.00
0.073,-0.19,0.33,0.86,-0.46,0.15,-0.24,0.11,-0.08,0.46,0.00
0.113,-0.19,0.33,0.86,-0.46,0.15,-0.24,-0.07,-0.10,0.54,0.00
0.113,-0.17,0.35,1.01,-0.46,0.15,-0.24,-0.07,-0.10,0.54,0.00
0.113,-0.17,0.35,1.01,-0.38,-0.17,1.15,-0.07,-0.10,0.54,0.00
0.151,-0.21,0.33,0.88,-0.38,-0.17,1.15,-0.07,-0.10,0.54,0.00
0.152,-0.21,0.33,0.88,-0.73,-0.48,0.04,-0.07,-0.10,0.54,0.00
0.191,-0.21,0.33,0.88,-0.73,-0.48,0.04,0.02,0.21,0.56,0.00
0.192,-0.21,0.33,0.88,-0.75,-0.36,-0.32,0.02,0.21,0.56,0.00
0.231,-0.21,0.33,0.88,-0.75,-0.36,-0.32,-0.02,0.19,0.70,0.00
0.231,-0.14,0.34,0.94,-0.75,-0.36,-0.32,-0.02,0.19,0.70,0.00
0.231,-0.14,0.34,0.94,-0.23,-0.34,0.26,-0.02,0.19,0.70,0.00
0.27,-0.14,0.34,0.94,0.02,-0.32,0.45,-0.02,0.19,0.70,0.00
0.31,-0.14,0.34,0.94,0.02,-0.32,0.45,0.08,0.26,0.70,0.00
0.31,-0.11,0.37,0.90,0.02,-0.32,0.45,0.08,0.26,0.70,0.00
0.31,-0.11,0.37,0.90,0.12,-0.13,0.05,0.08,0.26,0.70,0.00
0.349,-0.05,0.38,0.91,0.12,-0.13,0.05,0.08,0.26,0.70,0.00
0.35,-0.05,0.38,0.91,0.15,-0.26,0.04,0.08,0.26,0.70,0.00
0.389,-0.05,0.38,0.91,0.82,-0.01,0.21,0.08,0.26,0.70,0.00
0.389,-0.05,0.38,0.91,0.82,-0.01,0.21,-0.02,0.33,0.68,0.00
0.429,-0.05,0.38,0.91,0.82,-0.01,0.21,-0.11,0.27,0.59,0.00
0.43,-0.04,0.37,0.92,0.82,-0.01,0.21,-0.11,0.27,0.59,0.00
0.43,-0.04,0.37,0.92,0.73,-0.06,0.04,-0.11,0.27,0.59,0.00
0.468,-0.04,0.37,0.92,0.93,-0.22,0.45,-0.11,0.27,0.59,0.00
0.507,-0.04,0.37,0.92,0.93,-0.22,0.45,-0.16,0.25,0.58,0.00
0.509,-0.04,0.37,0.92,0.74,-0.28,0.19,-0.16,0.25,0.58,0.00
0.509,-0.03,0.36,0.92,0.74,-0.28,0.19,-0.16,0.25,0.58,0.00
0.547,-0.03,0.36,0.92,1.02,-0.06,-0.08,-0.16,0.25,0.58,0.00
0.548,0.04,0.39,0.95,1.02,-0.06,-0.08,-0.16,0.25,0.58,0.00
0.587,0.04,0.39,0.95,1.02,-0.06,-0.08,-0.10,0.12,0.64,0.00
0.588,0.04,0.39,0.95,1.41,0.10,0.53,-0.10,0.12,0.64,0.00
0.626,0.04,0.39,0.95,1.41,0.10,0.53,0.07,-0.00,0.33,0.00
0.627,0.08,0.41,0.89,1.41,0.10,0.53,0.07,-0.00,0.33,0.00
0.628,0.08,0.41,0.89,2.13,0.44,0.56,0.07,-0.00,0.33,0.00
0.666,0.08,0.41,0.89,1.15,-0.03,-0.64,0.07,-0.00,0.33,0.00
0.706,0.01,0.42,0.79,1.15,-0.03,-0.64,0.07,-0.00,0.33,0.00
0.706,0.01,0.42,0.79,1.15,-0.03,-0.64,-0.05,-0.15,0.17,0.00
0.707,0.01,0.42,0.79,0.52,0.22,-1.13,-0.05,-0.15,0.17,0.00
0.745,0.12,0.41,0.91,0.52,0.22,-1.13,-0.05,-0.15,0.17,0.00
0.746,0.12,0.41,0.91,1.36,0.81,-1.10,-0.05,-0.15,0.17,0.00
0.784,0.12,0.41,0.91,1.36,0.81,-1.10,-0.74,-0.21,0.31,0.00
0.785,0.12,0.41,0.91,1.63,0.78,-0.04,-0.74,-0.21,0.31,0.00
0.824,0.12,0.41,0.91,1.63,0.78,-0.04,-0.75,-0.09,0.06,0.00
0.824,0.04,0.36,1.04,1.63,0.78,-0.04,-0.75,-0.09,0.06,0.00
0.824,0.04,0.36,1.04,0.73,0.41,0.81,-0.75,-0.09,0.06,0.00
0.864,0.04,0.36,1.04,0.71,0.67,1.08,-0.75,-0.09,0.06,0.00
0.904,0.04,0.36,1.04,0.71,0.67,1.08,0.02,0.02,0.04,0.00
0.905,0.04,0.36,1.04,0.37,0.70,-0.29,0.02,0.02,0.04,0.00
0.905,-0.00,0.38,0.90,0.37,0.70,-0.29,0.02,0.02,0.04,0.00
0.948,-0.00,0.38,0.90,0.22,0.73,-0.35,0.02,0.02,0.04,0.00
0.948,0.02,0.39,0.94,0.22,0.73,-0.35,0.02,0.02,0.04,0.00
0.983,0.02,0.39,0.94,0.22,0.73,-0.35,0.09,-0.04,0.08,0.00
0.984,0.02,0.39,0.94,0.52,0.79,0.08,0.09,-0.04,0.08,0.00
1.022,0.02,0.39,0.94,0.52,0.79,0.08,-0.05,0.19,0.05,0.00
1.023,-0.03,0.38,0.93,0.52,0.79,0.08,-0.05,0.19,0.05,0.00
1.024,-0.03,0.38,0.93,0.11,0.72,-0.05,-0.05,0.19,0.05,0.00
1.062,-0.03,0.38,0.93,0.07,0.65,-0.02,-0.05,0.19,0.05,0.00
1.101,-0.03,0.38,0.93,0.07,0.65,-0.02,0.02,0.12,0.10,0.00
1.102,-0.04,0.38,0.98,0.07,0.65,-0.02,0.02,0.12,0.10,0.00
1.102,-0.04,0.38,0.98,0.04,0.71,0.36,0.02,0.12,0.10,0.00
1.141,-0.04,0.38,0.98,0.18,0.51,0.52,0.02,0.12,0.10,0.00
1.18,-0.04,0.38,0.98,0.18,0.51,0.52,0.06,0.12,0.14,0.00
1.18,0.02,0.33,1.00,0.18,0.51,0.52,0.06,0.12,0.14,0.00
1.18,0.02,0.33,1.00,0.77,0.11,0.66,0.06,0.12,0.14,0.00
1.219,0.02,0.33,1.00,0.77,0.11,0.66,-0.09,0.37,0.15,0.00
1.22,-0.04,0.30,0.94,0.77,0.11,0.66,-0.09,0.37,0.15,0.00
1.22,-0.04,0.30,0.94,0.20,0.02,-0.03,-0.09,0.37,0.15,0.00
1.258,-0.04,0.30,0.94,0.36,-0.19,0.08,-0.09,0.37,0.15,0.00
1.298,-0.04,0.30,0.94,0.36,-0.19,0.08,-0.05,0.19,0.04,0.00
1.299,-0.02,0.26,0.92,0.36,-0.19,0.08,-0.05,0.19,0.04,0.00
1.299,-0.02,0.26,0.92,0.61,-0.44,-0.06,-0.05,0.19,0.04,0.00
1.337,-0.02,0.26,0.92,0.42,-0.50,-0.27,-0.05,0.19,0.04,0.00
1.377,-0.02,0.26,0.92,0.42,-0.50,-0.27,-0.35,0.06,-0.12,0.00
1.378,-0.06,0.17,0.96,0.42,-0.50,-0.27,-0.35,0.06,-0.12,0.00
1.378,-0.06,0.17,0.96,0.28,-1.02,0.05,-0.35,0.06,-0.12,0.00
1.417,-0.12,0.07,1.05,0.28,-1.02,0.05,-0.35,0.06,-0.12,0.00
1.417,-0.12,0.07,1.05,-0.17,-1.64,1.22,-0.35,0.06,-0.12,0.00
1.456,-0.12,0.07,1.05,-0.17,-1.64,1.22,-0.58,0.17,-0.01,0.00
1.456,-0.12,0.07,1.05,-0.25,-1.79,0.82,-0.58,0.17,-0.01,0.00
1.496,-0.12,0.07,1.05,-0.25,-1.79,0.82,0.09,0.17,0.19,0.00
1.496,-0.12,0.15,0.96,-0.25,-1.79,0.82,0.09,0.17,0.19,0.00
1.497,-0.12,0.15,0.96,-0.64,-1.13,-0.15,0.09,0.17,0.19,0.00
1.536,-0.12,0.15,0.96,0.25,-0.96,0.28,0.09,0.17,0.19,0.00
1.575,-0.12,0.15,0.96,0.25,-0.96,0.28,0.09,-0.11,0.10,0.00
1.575,-0.06,0.15,0.93,0.25,-0.96,0.28,0.09,-0.11,0.10,0.00
1.575,-0.06,0.15,0.93,0.32,-0.91,-0.35,0.09,-0.11,0.10,0.00
1.614,-0.07,0.11,1.07,0.32,-0.91,-0.35,0.09,-0.11,0.10,0.00
1.614,-0.07,0.11,1.07,0.02,-1.07,0.33,0.09,-0.11,0.10,0.00
1.654,-0.07,0.11,1.07,0.02,-1.07,0.33,-0.49,-0.07,-0.06,0.00
1.655,-0.07,0.11,1.07,0.23,-1.12,1.19,-0.49,-0.07,-0.06,0.00
1.694,-0.07,0.11,1.07,0.23,-1.12,1.19,-0.04,0.14,-0.08,0.00
1.694,-0.08,0.18,0.86,0.23,-1.12,1.19,-0.04,0.14,-0.08,0.00
1.694,-0.08,0.18,0.86,0.25,-0.69,0.19,-0.04,0.14,-0.08,0.00
1.733,-0.08,0.18,0.86,0.17,-0.06,-1.94,-0.04,0.14,-0.08,0.00
1.774,-0.08,0.18,0.86,0.17,-0.06,-1.94,-0.09,-0.08,-0.22,0.00
1.774,-0.14,0.22,0.95,0.17,-0.06,-1.94,-0.09,-0.08,-0.22,0.00
1.774,-0.14,0.22,0.95,-0.57,0.18,-0.52,-0.09,-0.08,-0.22,0.00
1.812,-0.13,0.21,1.04,-0.57,0.18,-0.52,-0.09,-0.08,-0.22,0.00
1.812,-0.13,0.21,1.04,0.14,-0.09,1.65,-0.09,-0.08,-0.22,0.00
1.852,-0.13,0.21,1.04,-0.25,0.12,0.68,-0.09,-0.08,-0.22,0.00
1.852,-0.13,0.21,1.04,-0.25,0.12,0.68,-0.18,0.13,-0.24,0.00
1.892,-0.13,0.21,1.04,-0.25,0.12,0.68,0.06,0.17,-0.18,0.00
1.892,-0.13,0.23,0.95,-0.25,0.12,0.68,0.06,0.17,-0.18,0.00
1.892,-0.13,0.23,0.95,-0.12,0.27,-0.11,0.06,0.17,-0.18,0.00
1.93,-0.13,0.23,0.95,-0.07,0.23,-0.05,0.06,0.17,-0.18,0.00
1.97,-0.13,0.23,0.95,-0.07,0.23,-0.05,0.06,-0.02,-0.17,0.00
1.97,-0.14,0.23,0.95,-0.07,0.23,-0.05,0.06,-0.02,-0.17,0.00
1.971,-0.14,0.23,0.95,-0.14,0.19,-0.01,0.06,-0.02,-0.17,0.00
2.01,-0.08,0.25,0.98,-0.14,0.19,-0.01,0.06,-0.02,-0.17,0.00
2.01,-0.08,0.25,0.98,-0.32,0.52,-0.21,0.06,-0.02,-0.17,0.00
2.049,-0.08,0.25,0.98,-0.32,0.52,-0.21,0.03,-0.09,-0.16,0.00
2.05,-0.08,0.25,0.98,0.38,0.38,0.19,0.03,-0.09,-0.16,0.00
2.089,-0.08,0.25,0.98,0.38,0.38,0.19,0.22,-0.08,-0.32,0.00
2.089,-0.16,0.18,0.91,0.38,0.38,0.19,0.22,-0.08,-0.32,0.00
2.09,-0.16,0.18,0.91,0.06,-0.02,0.14,0.22,-0.08,-0.32,0.00
2.129,-0.16,0.18,0.91,-0.60,-0.52,-0.82,0.22,-0.08,-0.32,0.00
2.17,-0.16,0.18,0.91,-0.60,-0.52,-0.82,0.16,-0.19,-0.36,0.00
2.17,-0.05,0.18,1.04,-0.60,-0.52,-0.82,0.16,-0.19,-0.36,0.00
2.17,-0.05,0.18,1.04,0.39,-0.32,0.14,0.16,-0.19,-0.36,0.00
2.209,-0.05,0.18,1.04,0.95,-0.48,2.06,0.16,-0.19,-0.36,0.00
2.25,-0.05,0.18,1.04,0.95,-0.48,2.06,0.02,-0.20,-0.74,0.00
2.251,-0.06,0.07,1.02,0.95,-0.48,2.06,0.02,-0.20,-0.74,0.00
2.251,-0.06,0.07,1.02,0.47,-1.38,0.60,0.02,-0.20,-0.74,0.00
2.288,-0.06,0.07,1.02,0.47,-1.38,0.60,-0.09,-0.42,-0.73,0.00
2.288,-0.14,0.05,1.11,0.47,-1.38,0.60,-0.09,-0.42,-0.73,0.00
2.289,-0.14,0.05,1.11,-0.64,-1.66,0.70,-0.09,-0.42,-0.73,0.00
2.327,-0.14,0.05,1.11,-0.44,-1.47,1.62,-0.09,-0.42,-0.73,0.00
2.366,-0.14,0.05,1.11,-0.44,-1.47,1.62,0.19,-0.44,-0.54,0.00
2.367,-0.11,0.10,0.95,-0.44,-1.47,1.62,0.19,-0.44,-0.54,0.00
2.368,-0.11,0.10,0.95,-0.72,-1.20,-0.37,0.19,-0.44,-0.54,0.00
2.406,-0.11,0.10,0.95,0.15,-0.89,0.22,0.19,-0.44,-0.54,0.00
2.446,-0.10,0.11,1.02,0.15,-0.89,0.22,0.19,-0.44,-0.54,0.00
2.446,-0.10,0.11,1.02,0.15,-0.89,0.22,0.07,-0.38,-0.44,0.00
2.446,-0.10,0.11,1.02,-0.41,-0.96,0.48,0.07,-0.38,-0.44,0.00
2.485,-0.05,0.14,1.04,-0.41,-0.96,0.48,0.07,-0.38,-0.44,0.00
2.486,-0.05,0.14,1.04,-0.39,-0.81,0.10,0.07,-0.38,-0.44,0.00
2.525,-0.05,0.14,1.04,-0.39,-0.81,0.10,0.08,-0.22,-0.26,0.00
2.525,-0.05,0.14,1.04,0.07,-0.61,0.88,0.08,-0.22,-0.26,0.00
2.564,-0.05,0.14,1.04,0.07,-0.61,0.88,0.18,-0.05,-0.01,0.00
2.565,-0.05,0.14,1.04,-0.49,-1.21,0.39,0.18,-0.05,-0.01,0.00
2.565,-0.07,0.11,0.92,-0.49,-1.21,0.39,0.18,-0.05,-0.01,0.00
2.604,-0.07,0.11,0.92,0.06,-0.92,-1.61,0.18,-0.05,-0.01,0.00
2.644,-0.07,0.11,0.92,0.06,-0.92,-1.61,0.28,0.08,0.37,0.00
2.644,-0.02,0.26,0.85,0.06,-0.92,-1.61,0.28,0.08,0.37,0.00
2.645,-0.02,0.26,0.85,0.26,0.18,-1.28,0.28,0.08,0.37,0.00
2.683,0.01,0.34,0.95,0.26,0.18,-1.28,0.28,0.08,0.37,0.00
2.684,0.01,0.34,0.95,0.26,0.42,-0.13,0.28,0.08,0.37,0.00
2.722,0.01,0.34,0.95,0.26,0.42,-0.13,0.39,-0.10,0.36,0.00
2.723,0.01,0.34,0.95,0.49,0.74,0.03,0.39,-0.10,0.36,0.00
2.762,-0.00,0.28,0.83,0.49,0.74,0.03,0.39,-0.10,0.36,0.00
2.763,-0.00,0.28,0.83,0.49,0.74,0.03,0.18,0.07,0.21,0.00
2.763,-0.00,0.28,0.83,0.41,0.26,-0.85,0.18,0.07,0.21,0.00
2.802,-0.00,0.28,0.83,0.24,-0.08,-1.57,0.18,0.07,0.21,0.00
2.841,-0.00,0.28,0.83,0.24,-0.08,-1.57,-0.40,0.06,0.44,0.00
2.842,-0.00,0.28,0.83,0.11,0.34,-0.32,-0.40,0.06,0.44,0.00
2.843,-0.00,0.29,0.94,0.11,0.34,-0.32,-0.40,0.06,0.44,0.00
2.881,0.12,0.36,0.98,0.11,0.34,-0.32,-0.40,0.06,0.44,0.00
2.881,0.12,0.36,0.98,0.73,0.71,0.34,-0.40,0.06,0.44,0.00
2.92,0.12,0.36,0.98,0.73,0.71,0.34,-0.36,0.08,0.62,0.00
2.921,0.12,0.36,0.98,1.48,1.36,0.12,-0.36,0.08,0.62,0.00
2.962,0.12,0.36,0.98,1.48,1.36,0.12,0.03,0.09,0.34,0.00
2.963,0.12,0.36,0.98,0.94,1.05,-0.41,0.03,0.09,0.34,0.00
2.963,0.05,0.34,0.95,0.94,1.05,-0.41,0.03,0.09,0.34,0.00
2.999,0.05,0.34,0.95,0.53,0.86,0.15,0.03,0.09,0.34,0.00
3.039,0.05,0.34,0.95,0.53,0.86,0.15,0.17,0.07,0.22,0.00
3.04,0.05,0.34,0.95,1.15,1.37,-0.29,0.17,0.07,0.22,0.00
3.04,0.09,0.38,0.93,1.15,1.37,-0.29,0.17,0.07,0.22,0.00
3.078,0.06,0.30,1.05,1.15,1.37,-0.29,0.17,0.07,0.22,0.00
3.079,0.06,0.30,1.05,0.75,0.86,-0.09,0.17,0.07,0.22,0.00
3.117,0.06,0.30,1.05,0.75,0.86,-0.09,-0.03,0.06,0.01,0.00
3.118,0.06,0.30,1.05,0.77,0.38,1.02,-0.03,0.06,0.01,0.00
3.157,0.06,0.30,1.05,0.77,0.38,1.02,0.16,0.25,0.03,0.00
3.157,-0.02,0.30,0.96,0.77,0.38,1.02,0.16,0.25,0.03,0.00
3.158,-0.02,0.30,0.96,0.68,0.42,0.75,0.16,0.25,0.03,0.00
3.197,-0.02,0.30,0.96,-0.19,0.27,-0.37,0.16,0.25,0.03,0.00
3.236,-0.02,0.30,0.96,-0.19,0.27,-0.37,-0.08,0.21,0.04,0.00
3.237,-0.02,0.30,0.96,-0.60,0.05,-0.33,-0.08,0.21,0.04,0.00
3.237,-0.10,0.24,0.99,-0.60,0.05,-0.33,-0.08,0.21,0.04,0.00
3.276,-0.08,0.09,1.08,-0.60,0.05,-0.33,-0.08,0.21,0.04,0.00
3.276,-0.08,0.09,1.08,-0.23,-0.62,1.69,-0.08,0.21,0.04,0.00
3.316,-0.08,0.09,1.08,-0.23,-0.62,1.69,-0.51,0.19,0.16,0.00
3.317,-0.08,0.09,1.08,-0.14,-1.28,1.07,-0.51,0.19,0.16,0.00
3.355,-0.08,0.09,1.08,-0.14,-1.28,1.07,-0.21,0.50,0.38,0.00
3.355,-0.18,0.11,0.86,-0.14,-1.28,1.07,-0.21,0.50,0.38,0.00
3.356,-0.18,0.11,0.86,-0.70,-1.56,-0.70,-0.21,0.50,0.38,0.00
3.394,-0.18,0.11,0.86,-1.03,-0.78,-1.14,-0.21,0.50,0.38,0.00
3.434,-0.18,0.11,0.86,-0.46,0.12,-1.11,-0.21,0.50,0.38,0.00
3.435,-0.18,0.11,0.86,-0.46,0.12,-1.11,0.10,0.20,0.61,0.00
3.435,-0.12,0.25,0.86,-0.46,0.12,-1.11,0.10,0.20,0.61,0.00
3.473,-0.12,0.25,0.86,0.06,0.48,-0.80,0.10,0.20,0.61,0.00
3.513,-0.12,0.25,0.86,0.06,0.48,-0.80,-0.07,-0.09,0.27,0.00
3.514,-0.17,0.20,0.97,0.06,0.48,-0.80,-0.07,-0.09,0.27,0.00
3.514,-0.17,0.20,0.97,-0.84,-0.11,0.05,-0.07,-0.09,0.27,0.00
3.553,-0.17,0.20,0.97,-0.84,-0.11,0.05,-0.44,0.14,0.28,0.00
3.553,-0.24,0.12,0.99,-0.84,-0.11,0.05,-0.44,0.14,0.28,0.00
3.554,-0.24,0.12,0.99,-1.36,-0.86,0.78,-0.44,0.14,0.28,0.00
3.593,-0.24,0.12,0.99,-1.45,-0.56,-0.01,-0.44,0.14,0.28,0.00
3.632,-0.24,0.12,0.99,-1.45,-0.56,-0.01,-0.05,0.09,0.62,0.00
3.633,-0.14,0.22,0.95,-1.45,-0.56,-0.01,-0.05,0.09,0.62,0.00
3.634,-0.14,0.22,0.95,-0.43,0.20,-0.26,-0.05,0.09,0.62,0.00
3.671,-0.14,0.22,0.95,-0.62,0.24,0.02,-0.05,0.09,0.62,0.00
3.711,-0.14,0.22,0.95,-0.64,0.31,0.43,-0.05,0.09,0.62,0.00
3.711,-0.14,0.22,0.95,-0.64,0.31,0.43,0.21,-0.16,0.49,0.00
3.712,-0.13,0.25,1.02,-0.64,0.31,0.43,0.21,-0.16,0.49,0.00
3.75,-0.05,0.28,1.00,-0.64,0.31,0.43,0.21,-0.16,0.49,0.00
3.751,-0.05,0.28,1.00,-0.18,0.54,1.11,0.21,-0.16,0.49,0.00
3.79,-0.05,0.28,1.00,-0.18,0.54,1.11,0.12,-0.05,0.44,0.00
3.79,-0.05,0.28,1.00,0.25,0.48,0.14,0.12,-0.05,0.44,0.00
3.83,-0.05,0.28,1.00,0.25,0.48,0.14,0.24,-0.05,0.29,0.00
3.83,-0.04,0.30,0.93,0.25,0.48,0.14,0.24,-0.05,0.29,0.00
3.831,-0.04,0.30,0.93,0.11,0.62,-0.52,0.24,-0.05,0.29,0.00
3.869,-0.04,0.30,0.93,0.21,0.43,-0.10,0.24,-0.05,0.29,0.00
3.909,-0.04,0.30,0.93,0.21,0.43,-0.10,0.23,-0.21,0.06,0.00
3.909,-0.04,0.30,0.93,-0.03,0.11,0.18,0.23,-0.21,0.06,0.00
3.91,-0.04,0.27,0.99,-0.03,0.11,0.18,0.23,-0.21,0.06,0.00
3.948,-0.03,0.34,1.02,-0.03,0.11,0.18,0.23,-0.21,0.06,0.00
3.949,-0.03,0.34,1.02,0.21,0.09,1.10,0.23,-0.21,0.06,0.00
3.987,-0.03,0.34,1.02,0.21,0.09,1.10,0.34,-0.30,-0.03,0.00
3.988,-0.03,0.34,1.02,-0.07,0.59,0.56,0.34,-0.30,-0.03,0.00
4.028,-0.03,0.34,1.02,-0.07,0.59,0.56,0.31,-0.43,-0.40,0.00
4.028,0.04,0.29,1.04,-0.07,0.59,0.56,0.31,-0.43,-0.40,0.00
4.029,0.04,0.29,1.04,0.77,0.47,0.32,0.31,-0.43,-0.40,0.00
4.067,0.04,0.29,1.04,0.10,-0.54,1.27,0.31,-0.43,-0.40,0.00
4.107,0.04,0.29,1.04,-0.01,-1.51,0.57,0.31,-0.43,-0.40,0.00
4.108,-0.02,0.12,1.00,-0.01,-1.51,0.57,0.31,-0.43,-0.40,0.00
4.108,-0.02,0.12,1.00,-0.01,-1.51,0.57,-0.20,-0.13,-0.65,0.00
4.146,-0.01,0.14,0.95,-0.01,-1.51,0.57,-0.20,-0.13,-0.65,0.00
4.147,-0.01,0.14,0.95,0.03,-1.58,-0.09,-0.20,-0.13,-0.65,0.00
4.186,-0.01,0.14,0.95,0.03,-1.58,-0.09,0.06,0.07,-0.39,0.00
4.186,-0.01,0.14,0.95,0.12,-1.48,-0.09,0.06,0.07,-0.39,0.00
4.225,-0.01,0.14,0.95,0.12,-1.48,-0.09,0.69,-0.17,-0.27,0.00
4.225,-0.01,0.14,0.95,0.99,-1.40,-0.18,0.69,-0.17,-0.27,0.00
4.226,0.08,0.21,0.86,0.99,-1.40,-0.18,0.69,-0.17,-0.27,0.00
4.266,0.08,0.21,0.86,0.99,-1.01,-1.20,0.69,-0.17,-0.27,0.00
4.305,0.08,0.21,0.86,0.99,-1.01,-1.20,0.37,-0.12,-0.40,0.00
4.306,0.02,0.29,0.80,0.99,-1.01,-1.20,0.37,-0.12,-0.40,0.00
4.306,0.02,0.29,0.80,0.19,-0.51,-1.61,0.37,-0.12,-0.40,0.00
4.344,0.04,0.29,0.91,0.19,-0.51,-1.61,0.37,-0.12,-0.40,0.00
4.344,0.04,0.29,0.91,0.57,-0.19,-0.50,0.37,-0.12,-0.40,0.00
4.384,0.04,0.29,0.91,0.55,-0.15,-0.27,0.37,-0.12,-0.40,0.00
4.385,0.04,0.29,0.91,0.55,-0.15,-0.27,-0.39,-0.14,-0.38,0.00
4.423,0.04,0.29,0.91,0.55,-0.15,-0.27,-0.59,0.20,-0.22,0.00
4.424,0.04,0.29,0.91,-0.84,-0.27,-1.06,-0.59,0.20,-0.22,0.00
4.424,-0.09,0.28,0.90,-0.84,-0.27,-1.06,-0.59,0.20,-0.22,0.00
4.462,-0.09,0.28,0.90,-0.38,0.18,-0.16,-0.59,0.20,-0.22,0.00
4.503,-0.09,0.28,0.90,-0.38,0.18,-0.16,-0.03,-0.08,0.09,0.00
4.504,0.03,0.38,0.99,-0.38,0.18,-0.16,-0.03,-0.08,0.09,0.00
4.504,0.03,0.38,0.99,0.75,1.06,0.93,-0.03,-0.08,0.09,0.00
4.541,0.03,0.38,0.99,0.07,0.71,-0.59,-0.03,-0.08,0.09,0.00
4.582,0.03,0.38,0.99,0.07,0.71,-0.59,0.21,-0.07,-0.03,0.00
4.582,0.03,0.38,0.99,-0.04,0.62,0.50,0.21,-0.07,-0.03,0.00
4.583,-0.02,0.36,1.00,-0.04,0.62,0.50,0.21,-0.07,-0.03,0.00
4.621,-0.02,0.36,1.00,-0.04,0.62,0.50,0.03,0.15,0.05,0.00
4.622,-0.01,0.33,0.99,-0.04,0.62,0.50,0.03,0.15,0.05,0.00
4.622,-0.01,0.33,0.99,0.54,0.46,0.91,0.03,0.15,0.05,0.00
4.664,-0.01,0.33,0.99,0.02,0.26,0.18,0.03,0.15,0.05,0.00
4.7,-0.01,0.33,0.99,0.37,0.26,0.56,0.03,0.15,0.05,0.00
4.7,-0.01,0.33,0.99,0.37,0.26,0.56,0.07,0.10,0.04,0.00
4.701,-0.02,0.32,1.02,0.37,0.26,0.56,0.07,0.10,0.04,0.00
4.739,-0.02,0.32,1.02,-0.28,0.00,0.96,0.07,0.10,0.04,0.00
4.779,-0.02,0.32,1.02,-0.50,-0.40,0.49,0.07,0.10,0.04,0.00
4.779,-0.09,0.26,1.00,-0.50,-0.40,0.49,0.07,0.10,0.04,0.00
4.78,-0.09,0.26,1.00,-0.50,-0.40,0.49,0.04,0.15,-0.02,0.00
4.818,-0.12,0.13,0.95,-0.50,-0.40,0.49,0.04,0.15,-0.02,0.00
4.819,-0.12,0.13,0.95,0.20,-1.01,0.57,0.04,0.15,-0.02,0.00
4.858,-0.12,0.13,0.95,0.20,-1.01,0.57,-0.07,0.16,-0.01,0.00
4.858,-0.12,0.13,0.95,-0.84,-1.85,-0.22,-0.07,0.16,-0.01,0.00
4.898,-0.12,0.13,0.95,-0.84,-1.85,-0.22,-0.02,0.29,0.32,0.00
4.898,-0.12,0.13,0.95,-1.21,-1.18,-2.19,-0.02,0.29,0.32,0.00
4.899,-0.12,0.22,0.80,-1.21,-1.18,-2.19,-0.02,0.29,0.32,0.00
4.937,-0.12,0.22,0.80,0.18,-0.25,-0.34,-0.02,0.29,0.32,0.00
4.976,-0.12,0.22,0.80,0.18,-0.25,-0.34,0.00,-0.28,0.22,0.00
4.977,-0.12,0.22,0.80,0.02,-0.98,1.11,0.00,-0.28,0.22,0.00
4.977,-0.07,0.18,1.03,0.02,-0.98,1.11,0.00,-0.28,0.22,0.00
5.016,-0.06,0.24,0.92,0.02,-0.98,1.11,0.00,-0.28,0.22,0.00
5.017,-0.06,0.24,0.92,-1.24,-1.47,-0.93,0.00,-0.28,0.22,0.00
5.055,-0.06,0.24,0.92,-1.24,-1.47,-0.93,-0.32,0.20,0.19,0.00
5.056,-0.06,0.24,0.92,0.26,-0.02,-0.17,-0.32,0.20,0.19,0.00
5.095,-0.06,0.24,0.92,0.26,-0.02,-0.17,-0.36,-0.08,0.05,0.00
5.095,-0.01,0.24,1.02,0.26,-0.02,-0.17,-0.36,-0.08,0.05,0.00
5.095,-0.01,0.24,1.02,0.73,0.25,0.57,-0.36,-0.08,0.05,0.00
5.134,-0.01,0.24,1.02,-0.08,-0.37,0.60,-0.36,-0.08,0.05,0.00
5.174,-0.01,0.24,1.02,-0.08,-0.37,0.60,-0.23,-0.19,-0.08,0.00
5.175,-0.04,0.23,1.09,-0.08,-0.37,0.60,-0.23,-0.19,-0.08,0.00
5.175,-0.04,0.23,1.09,-0.10,-0.07,1.14,-0.23,-0.19,-0.08,0.00
5.214,-0.04,0.23,1.09,0.36,0.10,1.47,-0.23,-0.19,-0.08,0.00
5.214,0.03,0.28,1.01,0.36,0.10,1.47,-0.23,-0.19,-0.08,0.00
5.253,0.03,0.28,1.01,0.36,0.10,1.47,0.04,-0.15,-0.03,0.00
5.254,0.03,0.28,1.01,0.58,0.42,0.25,0.04,-0.15,-0.03,0.00
5.293,0.03,0.28,1.01,0.58,0.42,0.25,0.18,-0.42,-0.32,0.00
5.293,0.08,0.25,1.07,0.58,0.42,0.25,0.18,-0.42,-0.32,0.00
5.293,0.08,0.25,1.07,1.18,0.57,0.85,0.18,-0.42,-0.32,0.00
5.333,0.08,0.25,1.07,0.59,-0.45,1.21,0.18,-0.42,-0.32,0.00
5.372,0.08,0.25,1.07,0.59,-0.45,1.21,0.32,-0.19,-0.54,0.00
5.373,0.10,0.21,0.93,0.59,-0.45,1.21,0.32,-0.19,-0.54,0.00
5.373,0.10,0.21,0.93,0.98,-0.63,-0.48,0.32,-0.19,-0.54,0.00
5.411,0.03,0.18,0.87,0.98,-0.63,-0.48,0.32,-0.19,-0.54,0.00
5.412,0.03,0.18,0.87,1.07,-0.75,0.09,0.32,-0.19,-0.54,0.00
5.451,0.03,0.18,0.87,1.07,-0.75,0.09,0.31,-0.25,-0.74,0.00
5.451,0.03,0.18,0.87,0.28,-1.10,-0.84,0.31,-0.25,-0.74,0.00
5.49,0.03,0.18,0.87,0.28,-1.10,-0.84,0.04,-0.15,-0.66,0.00
5.491,0.02,0.24,0.85,0.28,-1.10,-0.84,0.04,-0.15,-0.66,0.00
5.491,0.02,0.24,0.85,0.12,-0.75,-1.22,0.04,-0.15,-0.66,0.00
5.531,0.02,0.24,0.85,0.33,-0.20,-0.91,0.04,-0.15,-0.66,0.00
5.571,0.02,0.24,0.85,0.33,-0.20,-0.91,-0.23,-0.06,-0.55,0.00
5.571,0.02,0.24,0.85,-0.79,-0.22,-1.01,-0.23,-0.06,-0.55,0.00
5.572,-0.09,0.26,0.87,-0.79,-0.22,-1.01,-0.23,-0.06,-0.55,0.00
5.609,-0.05,0.33,0.85,-0.79,-0.22,-1.01,-0.23,-0.06,-0.55,0.00
5.61,-0.05,0.33,0.85,-0.60,0.17,-0.25,-0.23,-0.06,-0.55,0.00
5.649,-0.05,0.33,0.85,-0.60,0.17,-0.25,-0.23,0.04,-0.23,0.00
5.65,-0.05,0.33,0.85,-0.32,0.73,-1.06,-0.23,0.04,-0.23,0.00
5.689,-0.05,0.33,0.85,-0.32,0.73,-1.06,-0.18,-0.02,-0.14,0.00
5.69,-0.08,0.32,0.90,-0.32,0.73,-1.06,-0.18,-0.02,-0.14,0.00
5.69,-0.08,0.32,0.90,-0.69,0.98,-1.13,-0.18,-0.02,-0.14,0.00
5.728,-0.08,0.32,0.90,-0.45,0.65,-0.23,-0.18,-0.02,-0.14,0.00
5.767,-0.08,0.32,0.90,-0.38,0.93,0.03,-0.18,-0.02,-0.14,0.00
5.768,-0.08,0.32,0.90,-0.38,0.93,0.03,-0.21,0.09,0.07,0.00
5.768,-0.06,0.34,0.93,-0.38,0.93,0.03,-0.21,0.09,0.07,0.00
5.807,-0.06,0.34,0.93,-0.13,1.00,-0.78,-0.21,0.09,0.07,0.00
5.847,-0.06,0.34,0.93,-0.13,1.00,-0.78,-0.06,0.13,0.19,0.00
5.847,-0.02,0.37,0.88,-0.13,1.00,-0.78,-0.06,0.13,0.19,0.00
5.848,-0.02,0.37,0.88,0.13,1.26,-0.75,-0.06,0.13,0.19,0.00
5.886,-0.02,0.37,0.88,0.13,1.26,-0.75,-0.07,0.06,0.16,0.00
5.887,-0.02,0.37,0.88,0.29,1.17,-0.42,-0.07,0.06,0.16,0.00
5.887,-0.01,0.36,0.93,0.29,1.17,-0.42,-0.07,0.06,0.16,0.00
5.925,-0.01,0.36,0.93,0.26,1.25,-0.26,-0.07,0.06,0.16,0.00
5.968,-0.01,0.36,0.93,0.26,1.25,-0.26,-0.06,0.13,0.13,0.00
5.969,-0.02,0.39,0.95,0.26,1.25,-0.26,-0.06,0.13,0.13,0.00
5.97,-0.02,0.39,0.95,0.27,1.46,-0.29,-0.06,0.13,0.13,0.00
6.004,-0.02,0.39,0.95,0.01,1.45,0.22,-0.06,0.13,0.13,0.00
6.045,-0.02,0.39,0.95,0.01,1.45,0.22,-0.07,0.10,0.13,0.00
6.045,-0.05,0.36,1.05,0.01,1.45,0.22,-0.07,0.10,0.13,0.00
6.046,-0.05,0.36,1.05,0.08,1.18,0.89,-0.07,0.10,0.13,0.00
6.084,-0.09,0.26,1.04,0.08,1.18,0.89,-0.07,0.10,0.13,0.00
6.084,-0.09,0.26,1.04,-0.49,0.94,0.62,-0.07,0.10,0.13,0.00
6.123,-0.09,0.26,1.04,-0.42,0.20,0.77,-0.07,0.10,0.13,0.00
6.124,-0.09,0.26,1.04,-0.42,0.20,0.77,-0.15,0.32,0.16,0.00
6.163,-0.09,0.26,1.04,-0.42,0.20,0.77,-0.17,-0.24,0.27,0.00
6.164,-0.11,0.11,1.37,-0.42,0.20,0.77,-0.17,-0.24,0.27,0.00
6.164,-0.11,0.11,1.37,-1.00,-0.63,4.59,-0.17,-0.24,0.27,0.00
6.202,-0.11,0.11,1.37,-0.30,-1.57,3.05,-0.17,-0.24,0.27,0.00
6.241,-0.13,0.09,0.94,-0.30,-1.57,3.05,-0.17,-0.24,0.27,0.00
6.242,-0.13,0.09,0.94,-0.65,-1.62,-0.26,-0.17,-0.24,0.27,0.00
6.242,-0.13,0.09,0.94,-0.65,-1.62,-0.26,0.48,0.30,0.47,0.00
6.281,-0.11,0.07,1.09,-0.65,-1.62,-0.26,0.48,0.30,0.47,0.00
6.281,-0.11,0.07,1.09,-1.40,-1.38,-0.60,0.48,0.30,0.47,0.00
6.32,-0.11,0.07,1.09,-1.40,-1.38,-0.60,0.35,-0.23,0.48,0.00
6.321,-0.11,0.07,1.09,-0.67,-2.06,1.59,0.35,-0.23,0.48,0.00
6.36,-0.11,0.07,1.09,-0.67,-2.06,1.59,0.23,0.18,0.57,0.00
6.361,-0.15,0.02,0.89,-0.67,-2.06,1.59,0.23,0.18,0.57,0.00
6.361,-0.15,0.02,0.89,-1.27,-2.87,0.24,0.23,0.18,0.57,0.00
6.401,-0.15,0.02,0.89,-1.00,-2.17,-1.49,0.23,0.18,0.57,0.00
6.44,-0.15,0.02,0.89,-1.00,-2.17,-1.49,0.16,-0.11,0.73,0.00
6.441,-0.15,0.02,0.89,-0.47,-1.27,0.44,0.16,-0.11,0.73,0.00
6.441,-0.06,0.14,1.01,-0.47,-1.27,0.44,0.16,-0.11,0.73,0.00
6.478,-0.06,0.14,1.01,-0.51,-1.69,0.58,0.16,-0.11,0.73,0.00
6.479,-0.12,0.16,0.90,-0.51,-1.69,0.58,0.16,-0.11,0.73,0.00
6.518,-0.12,0.16,0.90,-0.51,-1.69,0.58,0.13,0.13,0.58,0.00
6.519,-0.12,0.16,0.90,-1.01,-1.22,-0.62,0.13,0.13,0.58,0.00
6.558,-0.06,0.22,0.88,-1.01,-1.22,-0.62,0.13,0.13,0.58,0.00
6.558,-0.06,0.22,0.88,-1.01,-1.22,-0.62,0.05,0.16,0.60,0.00
6.559,-0.06,0.22,0.88,-0.52,-0.77,-0.89,0.05,0.16,0.60,0.00
6.597,-0.06,0.22,0.88,-0.41,-0.52,-0.62,0.05,0.16,0.60,0.00
6.637,-0.06,0.22,0.88,-0.41,-0.52,-0.62,-0.04,0.11,0.57,0.00
6.637,-0.09,0.29,0.89,-0.41,-0.52,-0.62,-0.04,0.11,0.57,0.00
6.638,-0.09,0.29,0.89,-0.64,0.03,-0.63,-0.04,0.11,0.57,0.00
6.678,-0.07,0.31,1.04,-0.64,0.03,-0.63,-0.04,0.11,0.57,0.00
6.679,-0.07,0.31,1.04,-1.02,0.03,-0.36,-0.04,0.11,0.57,0.00
6.716,-0.07,0.31,1.04,-1.02,0.03,-0.36,-0.10,-0.06,0.65,0.00
6.717,-0.07,0.31,1.04,-0.73,0.32,0.87,-0.10,-0.06,0.65,0.00
6.756,-0.07,0.31,1.04,-0.73,0.32,0.87,0.10,0.10,0.74,0.00
6.757,-0.10,0.32,0.93,-0.73,0.32,0.87,0.10,0.10,0.74,0.00
6.757,-0.10,0.32,0.93,-0.97,0.12,0.36,0.10,0.10,0.74,0.00
6.795,-0.10,0.32,0.93,-1.07,0.42,-0.47,0.10,0.10,0.74,0.00
6.835,-0.10,0.32,0.93,-1.07,0.42,-0.47,0.33,-0.05,0.78,0.00
6.836,-0.02,0.40,0.93,-1.07,0.42,-0.47,0.33,-0.05,0.78,0.00
6.836,-0.02,0.40,0.93,-0.40,0.96,-0.09,0.33,-0.05,0.78,0.00
6.874,-0.02,0.40,0.93,-0.57,0.67,-0.24,0.33,-0.05,0.78,0.00
6.914,-0.02,0.40,0.93,-1.12,0.51,-0.90,0.33,-0.05,0.78,0.00
6.914,-0.02,0.40,0.93,-1.12,0.51,-0.90,0.30,0.08,0.58,0.00
6.915,-0.09,0.38,0.85,-1.12,0.51,-0.90,0.30,0.08,0.58,0.00
6.953,-0.09,0.38,0.85,-1.12,0.51,-0.90,0.26,-0.01,0.54,0.00
6.954,-0.09,0.38,0.85,-1.00,0.89,0.03,0.26,-0.01,0.54,0.00
6.954,-0.07,0.41,0.99,-1.00,0.89,0.03,0.26,-0.01,0.54,0.00
6.993,-0.07,0.41,0.99,-1.13,0.43,0.77,0.26,-0.01,0.54,0.00
7.033,-0.07,0.41,0.99,-1.13,0.43,0.77,0.36,0.11,0.46,0.00
7.033,-0.12,0.42,0.94,-1.13,0.43,0.77,0.36,0.11,0.46,0.00
7.034,-0.12,0.42,0.94,-2.01,0.53,-0.26,0.36,0.11,0.46,0.00
7.072,-0.12,0.42,0.94,-0.72,0.55,0.93,0.36,0.11,0.46,0.00
7.111,-0.12,0.42,0.94,-1.10,-0.62,0.91,0.36,0.11,0.46,0.00
7.112,-0.12,0.42,0.94,-1.10,-0.62,0.91,-0.07,0.09,0.36,0.00
7.112,-0.08,0.29,1.03,-1.10,-0.62,0.91,-0.07,0.09,0.36,0.00
7.151,-0.08,0.29,1.03,-1.12,-0.90,1.24,-0.07,0.09,0.36,0.00
7.152,-0.08,0.24,1.09,-1.12,-0.90,1.24,-0.07,0.09,0.36,0.00
7.19,-0.08,0.24,1.09,-1.12,-0.90,1.24,-0.07,0.27,0.53,0.00
7.191,-0.08,0.24,1.09,-0.91,-1.29,1.62,-0.07,0.27,0.53,0.00
7.23,-0.08,0.24,1.09,-0.91,-1.29,1.62,0.42,0.70,0.91,0.00
7.231,-0.07,0.22,0.86,-0.91,-1.29,1.62,0.42,0.70,0.91,0.00
7.232,-0.07,0.22,0.86,-1.02,-1.76,-0.33,0.42,0.70,0.91,0.00
7.27,-0.07,0.22,0.86,-0.40,-1.40,-0.84,0.42,0.70,0.91,0.00
7.309,-0.07,0.22,0.86,1.69,-1.30,0.22,0.42,0.70,0.91,0.00
7.31,-0.07,0.22,0.86,1.69,-1.30,0.22,0.51,0.32,1.21,0.00
7.31,0.18,0.28,0.93,1.69,-1.30,0.22,0.51,0.32,1.21,0.00
7.349,-0.01,0.21,0.91,1.69,-1.30,0.22,0.51,0.32,1.21,0.00
7.35,-0.01,0.21,0.91,0.62,-1.18,0.42,0.51,0.32,1.21,0.00
7.388,-0.01,0.21,0.91,0.62,-1.18,0.42,0.09,0.50,0.90,0.00
7.389,-0.01,0.21,0.91,-0.36,-1.96,-0.05,0.09,0.50,0.90,0.00
7.428,0.01,0.23,0.90,-0.36,-1.96,-0.05,0.09,0.50,0.90,0.00
7.429,0.01,0.23,0.90,-0.36,-1.96,-0.05,-0.14,0.66,1.10,0.00
7.429,0.01,0.23,0.90,0.12,-1.59,0.34,-0.14,0.66,1.10,0.00
7.467,0.01,0.23,0.90,0.03,-1.53,-0.53,-0.14,0.66,1.10,0.00
7.506,0.01,0.23,0.90,0.03,-1.53,-0.53,0.07,0.61,1.21,0.00
7.507,-0.01,0.28,0.78,0.03,-1.53,-0.53,0.07,0.61,1.21,0.00
7.507,-0.01,0.28,0.78,-0.25,-1.31,-1.29,0.07,0.61,1.21,0.00
7.546,0.03,0.36,0.84,-0.25,-1.31,-1.29,0.07,0.61,1.21,0.00
7.547,0.03,0.36,0.84,0.56,-0.29,-0.92,0.07,0.61,1.21,0.00
7.586,0.03,0.36,0.84,0.56,-0.29,-0.92,-0.13,0.45,1.22,0.00
7.587,0.03,0.36,0.84,0.21,-0.08,-0.72,-0.13,0.45,1.22,0.00
7.626,-0.05,0.31,0.98,0.21,-0.08,-0.72,-0.13,0.45,1.22,0.00
7.627,-0.05,0.31,0.98,0.21,-0.08,-0.72,-0.53,0.43,1.09,0.00
7.627,-0.05,0.31,0.98,-0.70,-0.49,0.27,-0.53,0.43,1.09,0.00
7.665,-0.05,0.31,0.98,-0.26,-0.29,0.71,-0.53,0.43,1.09,0.00
7.705,-0.05,0.31,0.98,0.29,0.36,0.16,-0.53,0.43,1.09,0.00
7.705,0.03,0.38,0.94,0.29,0.36,0.16,-0.53,0.43,1.09,0.00
7.706,0.03,0.38,0.94,0.29,0.36,0.16,-0.24,0.48,1.24,0.00
7.744,0.03,0.38,0.94,0.41,0.59,0.04,-0.24,0.48,1.24,0.00
7.745,0.04,0.41,0.89,0.41,0.59,0.04,-0.24,0.48,1.24,0.00
7.784,0.04,0.41,0.89,0.41,0.76,-0.41,-0.24,0.48,1.24,0.00
7.785,0.04,0.41,0.89,0.41,0.76,-0.41,-0.06,0.46,1.11,0.00
7.824,0.04,0.41,0.89,0.41,0.76,-0.41,-0.15,0.43,1.00,0.00
7.825,0.06,0.43,0.93,0.41,0.76,-0.41,-0.15,0.43,1.00,0.00
7.825,0.06,0.43,0.93,0.54,1.07,-0.04,-0.15,0.43,1.00,0.00
7.863,0.06,0.43,0.93,0.69,1.03,0.02,-0.15,0.43,1.00,0.00
7.903,0.06,0.43,0.93,0.69,1.03,0.02,0.01,0.39,0.87,0.00
7.903,0.05,0.49,0.93,0.69,1.03,0.02,0.01,0.39,0.87,0.00
7.903,0.05,0.49,0.93,0.56,1.45,-0.15,0.01,0.39,0.87,0.00
7.942,0.04,0.44,1.03,0.56,1.45,-0.15,0.01,0.39,0.87,0.00
7.943,0.04,0.44,1.03,0.59,1.72,0.36,0.01,0.39,0.87,0.00
7.983,0.04,0.44,1.03,0.59,1.72,0.36,-0.06,0.35,0.74,0.00
7.984,0.04,0.44,1.03,0.56,1.08,0.89,-0.06,0.35,0.74,0.00
8.021,0.04,0.44,1.03,0.56,1.08,0.89,0.04,0.64,0.73,0.00
8.022,-0.09,0.42,0.87,0.56,1.08,0.89,0.04,0.64,0.73,0.00
8.023,-0.09,0.42,0.87,-1.12,0.52,-0.17,0.04,0.64,0.73,0.00
8.061,-0.09,0.42,0.87,-0.35,0.99,-0.79,0.04,0.64,0.73,0.00
8.1,-0.09,0.42,0.87,-0.31,0.50,2.79,0.04,0.64,0.73,0.00
8.101,-0.08,0.30,1.26,-0.31,0.50,2.79,0.04,0.64,0.73,0.00
8.101,-0.08,0.30,1.26,-0.31,0.50,2.79,-0.35,-0.03,0.61,0.00
8.14,-0.08,0.30,1.26,-1.09,-1.28,3.39,-0.35,-0.03,0.61,0.00
8.18,-0.08,0.30,1.26,-1.09,-1.74,1.32,-0.35,-0.03,0.61,0.00
8.18,-0.08,0.30,1.26,-1.09,-1.74,1.32,-0.25,0.45,0.82,0.00
8.181,-0.15,0.13,1.08,-1.09,-1.74,1.32,-0.25,0.45,0.82,0.00
8.219,-0.15,0.13,1.08,-1.09,-1.74,1.32,0.43,0.48,1.22,0.00
8.22,-0.09,0.24,0.79,-1.09,-1.74,1.32,0.43,0.48,1.22,0.00
8.22,-0.09,0.24,0.79,-0.26,-0.97,-1.33,0.43,0.48,1.22,0.00
8.26,-0.09,0.24,0.79,-0.75,-0.81,-1.61,0.43,0.48,1.22,0.00
8.298,-0.09,0.24,0.79,-0.52,-1.36,-0.24,0.43,0.48,1.22,0.00
8.299,-0.10,0.16,0.95,-0.52,-1.36,-0.24,0.43,0.48,1.22,0.00
8.299,-0.10,0.16,0.95,-0.52,-1.36,-0.24,0.22,-0.17,0.90,0.00
8.337,-0.10,0.16,0.95,-1.40,-2.24,0.58,0.22,-0.17,0.90,0.00
8.381,-0.10,0.16,0.95,-2.05,-2.53,-0.03,0.22,-0.17,0.90,0.00
8.382,-0.20,0.07,0.93,-2.05,-2.53,-0.03,0.22,-0.17,0.90,0.00
8.382,-0.20,0.07,0.93,-2.05,-2.53,-0.03,-0.19,0.17,0.84,0.00
8.417,-0.04,0.24,0.85,-2.05,-2.53,-0.03,-0.19,0.17,0.84,0.00
8.417,-0.04,0.24,0.85,-1.03,-1.59,-0.93,-0.19,0.17,0.84,0.00
8.457,-0.04,0.24,0.85,-1.03,-1.59,-0.93,0.09,0.18,1.10,0.00
8.459,-0.04,0.24,0.85,-0.29,-0.65,-0.79,0.09,0.18,1.10,0.00
8.496,-0.04,0.24,0.85,-0.29,-0.65,-0.79,0.16,-0.14,0.83,0.00
8.497,-0.04,0.24,0.85,-0.96,-0.63,-0.21,0.16,-0.14,0.83,0.00
8.497,-0.07,0.28,0.92,-0.96,-0.63,-0.21,0.16,-0.14,0.83,0.00
8.536,-0.07,0.28,0.92,-0.93,-0.19,0.01,0.16,-0.14,0.83,0.00
8.575,-0.07,0.28,0.92,-0.93,-0.19,0.01,-0.19,0.04,0.76,0.00
8.575,-0.07,0.28,0.92,-0.41,0.45,0.87,-0.19,0.04,0.76,0.00
8.576,0.00,0.36,1.05,-0.41,0.45,0.87,-0.19,0.04,0.76,0.00
8.614,0.00,0.38,1.19,-0.41,0.45,0.87,-0.19,0.04,0.76,0.00
8.615,0.00,0.38,1.19,-0.36,0.56,2.11,-0.19,0.04,0.76,0.00
8.654,0.00,0.38,1.19,-0.36,0.56,2.11,0.06,-0.12,0.61,0.00
8.655,0.00,0.38,1.19,-0.61,0.49,2.50,0.06,-0.12,0.61,0.00
8.693,0.00,0.38,1.19,-0.61,0.49,2.50,0.59,-0.07,0.44,0.00
8.694,0.08,0.40,0.99,-0.61,0.49,2.50,0.59,-0.07,0.44,0.00
8.694,0.08,0.40,0.99,0.32,0.36,1.80,0.59,-0.07,0.44,0.00
8.732,0.08,0.40,0.99,-0.14,0.41,-0.41,0.59,-0.07,0.44,0.00
8.773,0.08,0.40,0.99,0.62,0.70,0.17,0.59,-0.07,0.44,0.00
8.773,0.08,0.40,0.99,0.62,0.70,0.17,0.23,-0.25,0.10,0.00
8.774,0.15,0.41,0.97,0.62,0.70,0.17,0.23,-0.25,0.10,0.00
8.812,-0.01,0.15,1.12,0.62,0.70,0.17,0.23,-0.25,0.10,0.00
8.813,-0.01,0.15,1.12,0.37,-0.68,0.97,0.23,-0.25,0.10,0.00
8.851,-0.01,0.15,1.12,0.37,-0.68,0.97,-0.35,-0.22,-0.17,0.00
8.852,-0.01,0.15,1.12,-1.21,-2.00,1.84,-0.35,-0.22,-0.17,0.00
8.891,-0.01,0.15,1.12,-1.21,-2.00,1.84,0.31,0.54,0.46,0.00
8.892,-0.01,0.15,1.12,-0.93,-2.24,0.10,0.31,0.54,0.46,0.00
8.892,-0.02,0.20,0.78,-0.93,-2.24,0.10,0.31,0.54,0.46,0.00
8.93,-0.02,0.20,0.78,-0.94,-1.19,-2.41,0.31,0.54,0.46,0.00
8.969,-0.02,0.20,0.78,-0.94,-1.19,-2.41,0.94,0.06,0.66,0.00
8.97,0.19,0.37,0.78,-0.94,-1.19,-2.41,0.94,0.06,0.66,0.00
8.97,0.19,0.37,0.78,0.90,-0.36,-1.39,0.94,0.06,0.66,0.00
9.009,-0.04,0.26,0.81,0.90,-0.36,-1.39,0.94,0.06,0.66,0.00
9.009,-0.04,0.26,0.81,0.93,-0.64,-0.68,0.94,0.06,0.66,0.00
9.048,-0.04,0.26,0.81,0.93,-0.64,-0.68,0.13,0.20,0.10,0.00
9.049,-0.04,0.26,0.81,-1.20,-1.44,-0.94,0.13,0.20,0.10,0.00
9.088,-0.01,0.22,0.98,-1.20,-1.44,-0.94,0.13,0.20,0.10,0.00
9.089,-0.01,0.22,0.98,-1.20,-1.44,-0.94,-0.62,0.55,0.51,0.00
9.089,-0.01,0.22,0.98,-0.72,-1.65,1.13,-0.62,0.55,0.51,0.00
9.128,-0.01,0.22,0.98,-0.56,-1.30,0.27,-0.62,0.55,0.51,0.00
9.168,-0.01,0.22,0.98,-0.56,-1.30,0.27,0.02,0.78,1.05,0.00
9.168,-0.01,0.33,0.72,-0.56,-1.30,0.27,0.02,0.78,1.05,0.00
9.169,-0.01,0.33,0.72,-0.60,-0.71,-2.05,0.02,0.78,1.05,0.00
9.207,-0.01,0.33,0.72,-0.28,0.18,-1.79,0.02,0.78,1.05,0.00
9.246,-0.01,0.33,0.72,-0.28,0.18,-1.79,-0.02,0.23,1.27,0.00
9.247,0.05,0.39,0.91,-0.28,0.18,-1.79,-0.02,0.23,1.27,0.00
9.247,0.05,0.39,0.91,-0.00,0.30,-0.08,-0.02,0.23,1.27,0.00
9.288,0.05,0.39,0.91,-0.00,0.30,-0.08,-0.14,0.30,1.22,0.00
9.288,0.03,0.38,1.00,-0.00,0.30,-0.08,-0.14,0.30,1.22,0.00
9.289,0.03,0.38,1.00,-0.29,0.38,0.77,-0.14,0.30,1.22,0.00
9.325,0.03,0.38,1.00,-0.32,0.32,0.66,-0.14,0.30,1.22,0.00
9.365,0.03,0.38,1.00,-0.32,0.32,0.66,-0.06,0.62,1.24,0.00
9.366,0.04,0.42,0.87,-0.32,0.32,0.66,-0.06,0.62,1.24,0.00
9.366,0.04,0.42,0.87,-0.18,0.55,-0.30,-0.06,0.62,1.24,0.00
9.404,0.04,0.42,0.87,0.15,1.07,-0.86,-0.06,0.62,1.24,0.00
9.444,0.04,0.42,0.87,0.15,1.07,-0.86,0.07,0.58,1.12,0.00
9.445,0.02,0.47,0.90,0.15,1.07,-0.86,0.07,0.58,1.12,0.00
9.445,0.02,0.47,0.90,-0.16,1.23,-0.25,0.07,0.58,1.12,0.00
9.484,0.02,0.47,0.90,-0.17,1.05,0.20,0.07,0.58,1.12,0.00
9.484,0.04,0.44,1.00,-0.17,1.05,0.20,0.07,0.58,1.12,0.00
9.523,0.04,0.44,1.00,-0.17,1.05,0.20,0.06,0.57,0.99,0.00
9.524,0.04,0.44,1.00,0.21,0.80,0.91,0.06,0.57,0.99,0.00
9.563,0.04,0.44,1.00,0.21,0.80,0.91,0.16,0.66,0.97,0.00
9.564,-0.01,0.36,1.00,0.21,0.80,0.91,0.16,0.66,0.97,0.00
9.564,-0.01,0.36,1.00,-0.01,0.04,0.97,0.16,0.66,0.97,0.00
9.602,-0.01,0.36,1.00,-0.29,-0.11,0.55,0.16,0.66,0.97,0.00
9.642,-0.01,0.36,1.00,-0.29,-0.11,0.55,0.15,0.70,1.04,0.00
9.642,0.00,0.41,0.96,-0.29,-0.11,0.55,0.15,0.70,1.04,0.00
9.643,0.00,0.41,0.96,0.09,0.39,-0.10,0.15,0.70,1.04,0.00
9.683,-0.05,0.28,1.14,0.09,0.39,-0.10,0.15,0.70,1.04,0.00
9.684,-0.05,0.28,1.14,0.22,0.13,3.24,0.15,0.70,1.04,0.00
9.721,-0.05,0.28,1.14,0.22,0.13,3.24,-0.02,0.43,0.79,0.00
9.722,-0.05,0.28,1.14,-0.21,-1.13,1.79,-0.02,0.43,0.79,0.00
9.761,-0.08,0.21,0.91,-0.21,-1.13,1.79,-0.02,0.43,0.79,0.00
9.761,-0.08,0.21,0.91,-0.21,-1.13,1.79,-0.01,0.78,0.87,0.00
9.761,-0.08,0.21,0.91,-0.34,-1.46,-1.60,-0.01,0.78,0.87,0.00
9.8,-0.08,0.21,0.91,-0.12,-1.58,1.22,-0.01,0.78,0.87,0.00
9.84,-0.08,0.21,0.91,-0.12,-1.58,1.22,0.11,0.72,1.10,0.00
9.84,-0.15,0.18,0.79,-0.12,-1.58,1.22,0.11,0.72,1.10,0.00
9.84,-0.15,0.18,0.79,-0.88,-2.18,-0.98,0.11,0.72,1.10,0.00
9.879,0.07,0.38,1.00,-0.88,-2.18,-0.98,0.11,0.72,1.10,0.00
9.879,0.07,0.38,1.00,-0.47,-1.02,-2.24,0.11,0.72,1.10,0.00
9.918,0.07,0.38,1.00,-0.47,-1.02,-2.24,0.31,0.13,1.20,0.00
9.919,0.07,0.38,1.00,1.27,-0.10,1.22,0.31,0.13,1.20,0.00
9.96,0.07,0.38,1.00,1.27,-0.10,1.22,-0.05,0.10,0.53,0.00
9.96,-0.04,0.26,1.00,1.27,-0.10,1.22,-0.05,0.10,0.53,0.00
9.961,-0.04,0.26,1.00,-0.04,-0.98,2.86,-0.05,0.10,0.53,0.00
9.998,-0.04,0.26,1.00,0.11,-1.42,-0.66,-0.05,0.10,0.53,0.00
10.038,-0.04,0.26,1.00,0.11,-1.42,-0.66,-0.18,0.60,0.53,0.00
10.039,-0.06,0.37,0.76,0.11,-1.42,-0.66,-0.18,0.60,0.53,0.00
10.039,-0.06,0.37,0.76,-0.02,-0.11,-1.84,-0.18,0.60,0.53,0.00
10.077,-0.11,0.37,0.86,-0.02,-0.11,-1.84,-0.18,0.60,0.53,0.00
10.078,-0.11,0.37,0.86,-0.05,0.07,-0.78,-0.18,0.60,0.53,0.00
10.117,-0.11,0.37,0.86,-0.05,0.07,-0.78,-0.04,0.04,0.32,0.00
10.118,-0.11,0.37,0.86,-0.53,-0.10,-0.51,-0.04,0.04,0.32,0.00
10.157,-0.11,0.37,0.86,-0.53,-0.10,-0.51,-0.04,0.14,0.37,0.00
10.158,-0.03,0.47,0.86,-0.53,-0.10,-0.51,-0.04,0.14,0.37,0.00
10.158,-0.03,0.47,0.86,-0.15,0.50,-0.76,-0.04,0.14,0.37,0.00
10.196,-0.03,0.47,0.86,0.45,1.12,-0.33,-0.04,0.14,0.37,0.00
10.235,-0.03,0.47,0.86,0.45,1.12,-0.33,0.04,-0.08,0.18,0.00
10.236,0.02,0.52,0.92,0.45,1.12,-0.33,0.04,-0.08,0.18,0.00
10.237,0.02,0.52,0.92,0.56,1.32,0.06,0.04,-0.08,0.18,0.00
10.275,0.02,0.52,0.92,0.69,1.17,0.14,0.04,-0.08,0.18,0.00
10.314,0.02,0.52,0.92,0.69,1.17,0.14,0.19,-0.38,-0.20,0.00
10.315,-0.02,0.45,1.03,0.69,1.17,0.14,0.19,-0.38,-0.20,0.00
10.315,-0.02,0.45,1.03,-0.01,0.51,1.17,0.19,-0.38,-0.20,0.00
10.354,-0.02,0.45,1.03,-1.29,-0.07,0.53,0.19,-0.38,-0.20,0.00
10.355,-0.08,0.42,0.92,-1.29,-0.07,0.53,0.19,-0.38,-0.20,0.00
10.355,-0.08,0.42,0.92,-1.29,-0.07,0.53,0.14,-0.17,-0.17,0.00
10.393,-0.08,0.42,0.92,-0.41,0.27,-0.04,0.14,-0.17,-0.17,0.00
10.434,-0.08,0.42,0.92,-0.41,0.27,-0.04,-0.19,-0.50,-0.14,0.00
10.435,0.01,0.39,1.11,-0.41,0.27,-0.04,-0.19,-0.50,-0.14,0.00
10.435,0.01,0.39,1.11,0.05,0.38,2.02,-0.19,-0.50,-0.14,0.00
10.473,0.01,0.39,1.11,0.05,-0.65,1.67,-0.19,-0.50,-0.14,0.00
10.512,0.01,0.39,1.11,0.05,-0.65,1.67,-0.14,0.10,-0.11,0.00
10.513,0.01,0.39,1.11,-0.40,-0.98,-0.54,-0.14,0.10,-0.11,0.00
10.513,-0.04,0.29,0.86,-0.40,-0.98,-0.54,-0.14,0.10,-0.11,0.00
10.552,0.08,0.37,0.79,-0.40,-0.98,-0.54,-0.14,0.10,-0.11,0.00
10.553,0.08,0.37,0.79,0.11,-0.81,-1.52,-0.14,0.10,-0.11,0.00
10.591,0.08,0.37,0.79,0.11,-0.81,-1.52,0.37,0.03,0.08,0.00
10.592,0.08,0.37,0.79,0.97,-0.26,-0.96,0.37,0.03,0.08,0.00
10.631,0.08,0.37,0.79,0.97,-0.26,-0.96,0.27,-0.27,-0.32,0.00
10.632,0.09,0.40,0.87,0.97,-0.26,-0.96,0.27,-0.27,-0.32,0.00
10.632,0.09,0.40,0.87,1.00,-0.06,-0.57,0.27,-0.27,-0.32,0.00
10.671,0.09,0.40,0.87,0.52,-0.30,0.10,0.27,-0.27,-0.32,0.00
10.71,0.09,0.40,0.87,0.52,-0.30,0.10,-0.31,0.07,-0.45,0.00
10.71,0.02,0.37,0.87,0.52,-0.30,0.10,-0.31,0.07,-0.45,0.00
10.711,0.02,0.37,0.87,0.29,-0.31,-0.37,-0.31,0.07,-0.45,0.00
10.749,-0.05,0.36,0.87,0.29,-0.31,-0.37,-0.31,0.07,-0.45,0.00
10.75,-0.05,0.36,0.87,0.03,-0.21,-0.65,-0.31,0.07,-0.45,0.00
10.789,-0.05,0.36,0.87,0.03,-0.21,-0.65,-0.21,0.06,-0.24,0.00
10.79,-0.05,0.36,0.87,-0.40,-0.33,-0.34,-0.21,0.06,-0.24,0.00
10.829,-0.05,0.36,0.87,-0.40,-0.33,-0.34,0.03,0.23,0.24,0.00
10.829,-0.09,0.44,0.79,-0.40,-0.33,-0.34,0.03,0.23,0.24,0.00
10.83,-0.09,0.44,0.79,-0.82,0.01,-1.07,0.03,0.23,0.24,0.00
10.868,-0.09,0.44,0.79,-0.39,0.94,-1.20,0.03,0.23,0.24,0.00
10.908,-0.09,0.44,0.79,-0.39,0.94,-1.20,0.14,0.05,0.54,0.00
10.908,-0.01,0.55,0.91,-0.39,0.94,-1.20,0.14,0.05,0.54,0.00
10.908,-0.01,0.55,0.91,-0.06,1.49,-0.20,0.14,0.05,0.54,0.00
10.947,-0.01,0.55,0.91,0.50,1.29,1.11,0.14,0.05,0.54,0.00
10.948,-0.00,0.52,0.99,0.50,1.29,1.11,0.14,0.05,0.54,0.00
10.99,-0.00,0.52,0.99,0.50,1.29,1.11,0.15,0.01,0.44,0.00
10.99,-0.00,0.52,0.99,-0.06,0.93,0.79,0.15,0.01,0.44,0.00
11.026,-0.00,0.52,0.99,-0.06,0.93,0.79,0.22,0.25,0.40,0.00
11.027,-0.00,0.52,0.99,0.06,0.72,1.01,0.22,0.25,0.40,0.00
11.027,-0.03,0.50,1.01,0.06,0.72,1.01,0.22,0.25,0.40,0.00
11.066,-0.03,0.50,1.01,-0.33,0.54,1.20,0.22,0.25,0.40,0.00
11.105,-0.03,0.50,1.01,-0.67,0.18,-0.13,0.22,0.25,0.40,0.00
11.106,-0.03,0.50,1.01,-0.67,0.18,-0.13,0.19,0.46,0.41,0.00
11.106,-0.08,0.46,0.90,-0.67,0.18,-0.13,0.19,0.46,0.41,0.00
11.145,-0.07,0.35,0.99,-0.67,0.18,-0.13,0.19,0.46,0.41,0.00
11.146,-0.07,0.35,0.99,-0.12,-0.01,0.58,0.19,0.46,0.41,0.00
11.184,-0.07,0.35,0.99,-0.12,-0.01,0.58,-0.08,0.37,0.50,0.00
11.185,-0.07,0.35,0.99,-0.30,-0.97,0.89,-0.08,0.37,0.50,0.00
11.224,-0.07,0.35,0.99,-0.30,-0.97,0.89,0.10,0.51,0.70,0.00
11.225,-0.07,0.35,0.99,-0.93,-1.34,-0.17,0.10,0.51,0.70,0.00
11.225,-0.16,0.35,0.85,-0.93,-1.34,-0.17,0.10,0.51,0.70,0.00
11.264,-0.16,0.35,0.85,-1.39,-0.69,-0.50,0.10,0.51,0.70,0.00
11.303,-0.16,0.35,0.85,-1.39,-0.69,-0.50,0.28,0.02,0.82,0.00
11.304,-0.03,0.38,1.06,-1.39,-0.69,-0.50,0.28,0.02,0.82,0.00
11.304,-0.03,0.38,1.06,-0.11,-0.74,1.47,0.28,0.02,0.82,0.00
11.343,-0.03,0.38,1.06,-0.23,-0.94,2.15,0.28,0.02,0.82,0.00
11.344,-0.10,0.35,0.96,-0.23,-0.94,2.15,0.28,0.02,0.82,0.00
11.387,-0.10,0.35,0.96,-0.23,-0.94,2.15,0.25,0.23,0.63,0.00
11.388,-0.10,0.35,0.96,-0.80,-1.24,0.69,0.25,0.23,0.63,0.00
11.422,-0.10,0.35,0.96,-0.80,-1.24,0.69,-0.10,0.85,0.61,0.00
11.423,-0.06,0.36,0.62,-0.80,-1.24,0.69,-0.10,0.85,0.61,0.00
11.424,-0.06,0.36,0.62,0.00,-0.97,-1.23,-0.10,0.85,0.61,0.00
11.462,-0.06,0.36,0.62,-0.15,-0.98,-3.27,-0.10,0.85,0.61,0.00
11.502,-0.06,0.36,0.62,-0.15,-0.98,-3.27,-0.24,0.42,0.48,0.00
11.502,-0.03,0.43,0.64,-0.15,-0.98,-3.27,-0.24,0.42,0.48,0.00
11.503,-0.03,0.43,0.64,0.25,-0.27,-2.42,-0.24,0.42,0.48,0.00
11.542,-0.03,0.43,0.64,0.12,-0.05,-2.31,-0.24,0.42,0.48,0.00
11.581,-0.03,0.43,0.64,0.12,-0.05,-2.31,-0.19,-0.00,0.30,0.00
11.582,-0.03,0.43,0.64,0.14,0.28,-1.24,-0.19,-0.00,0.30,0.00
11.582,-0.03,0.47,0.76,0.14,0.28,-1.24,-0.19,-0.00,0.30,0.00
11.62,-0.03,0.47,0.76,0.14,0.81,0.05,-0.19,-0.00,0.30,0.00
11.621,-0.01,0.56,1.04,0.14,0.81,0.05,-0.19,-0.00,0.30,0.00
11.621,-0.01,0.56,1.04,0.14,0.81,0.05,-0.21,-0.24,0.12,0.00
11.659,-0.01,0.56,1.04,0.14,1.39,2.11,-0.21,-0.24,0.12,0.00
11.699,-0.01,0.56,1.04,0.14,1.39,2.11,0.00,-0.30,-0.09,0.00
11.699,-0.01,0.56,1.04,0.81,0.99,3.25,0.00,-0.30,-0.09,0.00
11.7,0.05,0.51,1.15,0.81,0.99,3.25,0.00,-0.30,-0.09,0.00
11.739,0.05,0.51,1.15,0.28,0.28,1.36,0.00,-0.30,-0.09,0.00
11.778,0.04,0.51,0.79,0.28,0.28,1.36,0.00,-0.30,-0.09,0.00
11.778,0.04,0.51,0.79,0.28,0.28,1.36,0.22,-0.09,-0.16,0.00
11.778,0.04,0.51,0.79,0.50,0.54,-1.07,0.22,-0.09,-0.16,0.00
11.817,0.05,0.40,1.04,0.50,0.54,-1.07,0.22,-0.09,-0.16,0.00
11.818,0.05,0.40,1.04,0.20,0.65,0.50,0.22,-0.09,-0.16,0.00
11.857,0.05,0.40,1.04,0.20,0.65,0.50,-0.27,-0.73,-0.34,0.00
11.858,0.05,0.40,1.04,0.33,-0.57,1.64,-0.27,-0.73,-0.34,0.00
11.896,0.05,0.40,1.04,0.33,-0.57,1.64,-0.35,-0.04,-0.22,0.00
11.897,-0.02,0.32,0.87,0.33,-0.57,1.64,-0.35,-0.04,-0.22,0.00
11.897,-0.02,0.32,0.87,-0.74,-1.25,-0.13,-0.35,-0.04,-0.22,0.00
11.936,-0.02,0.32,0.87,0.08,-0.49,-0.74,-0.35,-0.04,-0.22,0.00
11.976,-0.02,0.32,0.87,0.08,-0.49,-0.74,0.18,-0.28,-0.14,0.00
11.977,0.17,0.41,0.91,0.08,-0.49,-0.74,0.18,-0.28,-0.14,0.00
11.977,0.17,0.41,0.91,1.35,-0.05,0.22,0.18,-0.28,-0.14,0.00
12.015,0.05,0.31,0.81,1.35,-0.05,0.22,0.18,-0.28,-0.14,0.00
12.015,0.05,0.31,0.81,1.07,-0.75,-0.57,0.18,-0.28,-0.14,0.00
12.054,0.05,0.31,0.81,1.07,-0.75,-0.57,0.19,-0.26,-0.74,0.00
12.055,0.05,0.31,0.81,0.17,-1.21,-0.93,0.19,-0.26,-0.74,0.00
12.095,0.05,0.31,0.81,-0.42,-1.22,-1.03,0.19,-0.26,-0.74,0.00
12.096,0.05,0.31,0.81,-0.42,-1.22,-1.03,-0.54,0.10,-0.83,0.00
12.096,-0.06,0.28,0.79,-0.42,-1.22,-1.03,-0.54,0.10,-0.83,0.00
12.133,-0.06,0.28,0.79,-0.51,-0.86,-1.32,-0.54,0.10,-0.83,0.00
12.173,-0.06,0.28,0.79,-0.79,-0.20,-0.85,-0.54,0.10,-0.83,0.00
12.174,-0.06,0.28,0.79,-0.79,-0.20,-0.85,-0.60,0.09,-0.43,0.00
12.174,-0.11,0.33,0.84,-0.79,-0.20,-0.85,-0.60,0.09,-0.43,0.00
12.213,-0.14,0.38,0.90,-0.79,-0.20,-0.85,-0.60,0.09,-0.43,0.00
12.214,-0.14,0.38,0.90,-1.33,-0.20,-0.46,-0.60,0.09,-0.43,0.00
12.252,-0.14,0.38,0.90,-1.33,-0.20,-0.46,-0.28,-0.08,0.22,0.00
12.253,-0.14,0.38,0.90,-1.30,0.41,-0.25,-0.28,-0.08,0.22,0.00
12.293,-0.14,0.38,0.90,-1.30,0.41,-0.25,-0.05,-0.08,0.78,0.00
12.294,-0.07,0.48,0.95,-1.30,0.41,-0.25,-0.05,-0.08,0.78,0.00
12.294,-0.07,0.48,0.95,-1.07,1.23,-0.42,-0.05,-0.08,0.78,0.00
12.331,-0.07,0.48,0.95,-0.65,1.55,0.66,-0.05,-0.08,0.78,0.00
12.371,-0.05,0.44,1.15,-0.65,1.55,0.66,-0.05,-0.08,0.78,0.00
12.372,-0.05,0.44,1.15,-0.88,1.13,2.23,-0.05,-0.08,0.78,0.00
12.372,-0.05,0.44,1.15,-0.88,1.13,2.23,-0.08,-0.20,0.89,0.00
12.41,-0.08,0.43,0.98,-0.88,1.13,2.23,-0.08,-0.20,0.89,0.00
12.411,-0.08,0.43,0.98,-0.73,0.69,1.71,-0.08,-0.20,0.89,0.00
12.45,-0.08,0.43,0.98,-0.73,0.69,1.71,0.21,0.28,0.97,0.00
12.451,-0.08,0.43,0.98,-1.21,0.75,0.42,0.21,0.28,0.97,0.00
12.489,-0.08,0.43,0.98,-1.21,0.75,0.42,0.23,0.25,0.97,0.00
12.49,-0.03,0.47,1.06,-1.21,0.75,0.42,0.23,0.25,0.97,0.00
12.49,-0.03,0.47,1.06,-0.91,1.18,-0.31,0.23,0.25,0.97,0.00
12.529,-0.03,0.47,1.06,-0.73,0.92,2.18,0.23,0.25,0.97,0.00
12.569,-0.03,0.47,1.06,-0.73,0.92,2.18,0.01,0.33,0.91,0.00
12.57,-0.02,0.20,1.09,-0.73,0.92,2.18,0.01,0.33,0.91,0.00
12.57,-0.02,0.20,1.09,-0.46,-1.06,2.68,0.01,0.33,0.91,0.00
12.608,-0.02,0.20,1.09,-0.83,-2.72,-0.98,0.01,0.33,0.91,0.00
12.648,-0.02,0.20,1.09,-0.83,-2.72,-0.98,0.16,0.65,1.33,0.00
12.649,-0.07,0.15,0.87,-0.83,-2.72,-0.98,0.16,0.65,1.33,0.00
12.649,-0.07,0.15,0.87,-1.07,-2.03,-0.60,0.16,0.65,1.33,0.00
12.692,-0.07,0.15,0.87,-1.07,-2.03,-0.60,0.41,0.42,1.79,0.00
12.692,-0.00,0.30,0.78,-1.07,-2.03,-0.60,0.41,0.42,1.79,0.00
12.693,-0.00,0.30,0.78,-0.84,-1.45,-1.27,0.41,0.42,1.79,0.00
12.727,-0.00,0.30,0.78,-0.56,-0.50,-1.32,0.41,0.42,1.79,0.00
12.767,0.15,0.39,1.01,-0.56,-0.50,-1.32,0.41,0.42,1.79,0.00
12.767,0.15,0.39,1.01,-0.56,-0.50,-1.32,0.27,-0.16,1.54,0.00
12.768,0.15,0.39,1.01,0.70,0.32,0.43,0.27,-0.16,1.54,0.00
12.806,0.15,0.39,1.01,-0.07,-0.21,1.68,0.27,-0.16,1.54,0.00
12.845,0.15,0.39,1.01,-0.68,-1.02,0.16,0.27,-0.16,1.54,0.00
12.846,0.15,0.39,1.01,-0.68,-1.02,0.16,-0.13,0.23,0.95,0.00
12.847,0.04,0.26,0.92,-0.68,-1.02,0.16,-0.13,0.23,0.95,0.00
12.885,0.06,0.39,0.73,-0.68,-1.02,0.16,-0.13,0.23,0.95,0.00
12.885,0.06,0.39,0.73,-0.05,-0.37,-2.10,-0.13,0.23,0.95,0.00
12.925,0.06,0.39,0.73,-0.05,-0.37,-2.10,-0.04,0.63,0.84,0.00
12.925,0.06,0.39,0.73,-0.39,0.53,-1.74,-0.04,0.63,0.84,0.00
12.965,0.06,0.39,0.73,-0.30,-0.14,0.27,-0.04,0.63,0.84,0.00
12.966,0.06,0.39,0.73,-0.30,-0.14,0.27,0.07,0.01,0.39,0.00
12.966,0.09,0.35,0.98,-0.30,-0.14,0.27,0.07,0.01,0.39,0.00
13.004,0.09,0.35,0.98,0.16,-0.11,1.01,0.07,0.01,0.39,0.00
13.044,0.09,0.35,0.98,0.68,0.40,0.39,0.07,0.01,0.39,0.00
13.044,0.16,0.41,0.95,0.68,0.40,0.39,0.07,0.01,0.39,0.00
13.045,0.16,0.41,0.95,0.68,0.40,0.39,0.16,0.21,0.28,0.00
13.083,0.19,0.45,1.05,0.68,0.40,0.39,0.16,0.21,0.28,0.00
13.084,0.19,0.45,1.05,0.61,0.57,0.27,0.16,0.21,0.28,0.00
13.122,0.19,0.45,1.05,0.61,0.57,0.27,0.17,-0.04,-0.02,0.00
13.122,0.19,0.45,1.05,0.96,0.69,1.64,0.17,-0.04,-0.02,0.00
13.162,0.19,0.45,1.05,0.96,0.69,1.64,0.05,-0.23,-0.47,0.00
13.163,0.19,0.45,1.05,1.08,0.27,1.56,0.05,-0.23,-0.47,0.00
13.163,0.20,0.39,1.11,1.08,0.27,1.56,0.05,-0.23,-0.47,0.00
13.201,0.20,0.39,1.11,0.88,-0.22,2.17,0.05,-0.23,-0.47,0.00
13.241,0.20,0.39,1.11,0.88,-0.22,2.17,-0.21,0.17,-0.55,0.00
13.242,0.05,0.25,0.95,0.88,-0.22,2.17,-0.21,0.17,-0.55,0.00
13.242,0.05,0.25,0.95,-0.10,-1.24,0.60,-0.21,0.17,-0.55,0.00
13.28,0.12,0.33,0.91,-0.10,-1.24,0.60,-0.21,0.17,-0.55,0.00
13.281,0.12,0.33,0.91,-0.47,-1.19,-1.70,-0.21,0.17,-0.55,0.00
13.32,0.12,0.33,0.91,-0.47,-1.19,-1.70,0.18,0.05,-0.21,0.00
13.32,0.12,0.33,0.91,0.52,-0.51,0.24,0.18,0.05,-0.21,0.00
13.36,0.12,0.33,0.91,0.52,-0.51,0.24,0.47,-0.23,-0.45,0.00
13.361,0.05,0.29,0.81,0.52,-0.51,0.24,0.47,-0.23,-0.45,0.00
13.361,0.05,0.29,0.81,0.86,-1.03,0.73,0.47,-0.23,-0.45,0.00
13.399,0.05,0.29,0.81,-0.95,-1.35,-2.30,0.47,-0.23,-0.45,0.00
13.439,-0.06,0.33,0.69,-0.95,-1.35,-2.30,0.47,-0.23,-0.45,0.00
13.44,-0.06,0.33,0.69,-0.95,-1.35,-2.30,-0.24,0.21,-0.35,0.00
13.44,-0.06,0.33,0.69,-1.07,-0.64,-2.66,-0.24,0.21,-0.35,0.00
13.478,-0.16,0.30,0.89,-1.07,-0.64,-2.66,-0.24,0.21,-0.35,0.00
13.479,-0.16,0.30,0.89,-1.06,-0.32,-0.62,-0.24,0.21,-0.35,0.00
13.517,-0.16,0.30,0.89,-1.06,-0.32,-0.62,-0.57,0.00,-0.15,0.00
13.518,-0.16,0.30,0.89,-2.01,-0.61,-0.28,-0.57,0.00,-0.15,0.00
13.557,-0.16,0.30,0.89,-2.01,-0.61,-0.28,-0.32,0.12,0.51,0.00
13.558,-0.19,0.30,0.94,-2.01,-0.61,-0.28,-0.32,0.12,0.51,0.00
13.559,-0.19,0.30,0.94,-2.79,-0.65,-0.57,-0.32,0.12,0.51,0.00
13.597,-0.19,0.30,0.94,-1.92,-0.25,0.51,-0.32,0.12,0.51,0.00
13.636,-0.19,0.30,0.94,-1.95,-0.04,0.28,-0.32,0.12,0.51,0.00
13.637,-0.19,0.30,0.94,-1.95,-0.04,0.28,0.01,0.17,1.20,0.00
13.637,-0.12,0.35,0.98,-1.95,-0.04,0.28,0.01,0.17,1.20,0.00
13.676,0.04,0.35,1.17,-1.95,-0.04,0.28,0.01,0.17,1.20,0.00
13.677,0.04,0.35,1.17,-1.18,0.43,1.13,0.01,0.17,1.20,0.00
13.715,0.04,0.35,1.17,-1.18,0.43,1.13,0.19,0.10,1.49,0.00
13.716,0.04,0.35,1.17,-0.29,0.04,2.41,0.19,0.10,1.49,0.00
13.755,0.04,0.35,1.17,-0.29,0.04,2.41,0.12,0.88,1.56,0.00
13.756,-0.05,0.26,0.91,-0.29,0.04,2.41,0.12,0.88,1.56,0.00
13.756,-0.05,0.26,0.91,-1.29,-1.09,0.90,0.12,0.88,1.56,0.00
13.794,-0.05,0.26,0.91,-0.84,-0.54,-0.81,0.12,0.88,1.56,0.00
13.834,-0.05,0.26,0.91,-0.84,-0.54,-0.81,-0.17,0.50,1.66,0.00
13.835,0.02,0.22,1.12,-0.84,-0.54,-0.81,-0.17,0.50,1.66,0.00
13.835,0.02,0.22,1.12,0.01,-0.40,1.57,-0.17,0.50,1.66,0.00
13.874,0.02,0.22,1.12,-1.05,-1.87,2.06,-0.17,0.50,1.66,0.00
13.913,0.02,0.22,1.12,-1.05,-1.87,2.06,-0.16,0.71,1.67,0.00
13.913,0.02,0.22,1.12,-0.94,-3.08,0.06,-0.16,0.71,1.67,0.00
13.914,-0.05,-0.02,0.95,-0.94,-3.08,0.06,-0.16,0.71,1.67,0.00
13.953,-0.05,-0.02,0.95,-0.94,-3.08,0.06,0.02,0.79,2.26,0.00
13.954,0.01,0.13,0.89,-0.94,-3.08,0.06,0.02,0.79,2.26,0.00
13.954,0.01,0.13,0.89,-1.04,-2.23,-0.70,0.02,0.79,2.26,0.00
13.995,0.01,0.13,0.89,-0.06,-1.32,-0.54,0.02,0.79,2.26,0.00
14.032,0.01,0.13,0.89,-0.14,-0.61,0.85,0.02,0.79,2.26,0.00
14.033,0.03,0.21,1.09,-0.14,-0.61,0.85,0.02,0.79,2.26,0.00
14.033,0.03,0.21,1.09,-0.14,-0.61,0.85,0.18,0.27,2.03,0.00
14.071,0.03,0.21,1.09,-0.58,-1.01,2.16,0.18,0.27,2.03,0.00
14.11,0.03,0.21,1.09,-0.58,-1.01,2.16,-0.00,0.75,1.81,0.00
14.111,-0.10,0.15,0.90,-0.58,-1.01,2.16,-0.00,0.75,1.81,0.00
14.111,-0.10,0.15,0.90,-1.40,-1.36,-0.43,-0.00,0.75,1.81,0.00
14.181,-0.05,0.27,1.01,-1.40,-1.36,-0.43,-0.00,0.75,1.81,0.00
14.182,-0.05,0.27,1.01,-1.19,-0.40,-1.05,-0.00,0.75,1.81,0.00
14.189,-0.05,0.27,1.01,-1.19,-0.40,-1.05,-0.12,0.52,1.90,0.00
14.19,-0.05,0.27,1.01,-0.82,0.14,0.94,-0.12,0.52,1.90,0.00
14.229,-0.05,0.27,1.01,-0.82,0.14,0.94,0.08,0.23,1.51,0.00
14.23,-0.05,0.27,1.01,-1.41,-0.38,1.41,0.08,0.23,1.51,0.00
14.23,-0.09,0.22,1.08,-1.41,-0.38,1.41,0.08,0.23,1.51,0.00
14.269,-0.09,0.22,1.08,-1.32,-0.48,1.02,0.08,0.23,1.51,0.00
14.308,-0.09,0.22,1.08,-0.71,-0.33,0.92,0.08,0.23,1.51,0.00
14.309,-0.04,0.23,1.04,-0.71,-0.33,0.92,0.08,0.23,1.51,0.00
14.309,-0.04,0.23,1.04,-0.71,-0.33,0.92,0.13,0.44,1.34,0.00
14.348,-0.04,0.23,0.86,-0.71,-0.33,0.92,0.13,0.44,1.34,0.00
14.349,-0.04,0.23,0.86,-0.79,-0.51,-0.13,0.13,0.44,1.34,0.00
14.387,-0.04,0.23,0.86,-0.79,-0.51,-0.13,0.16,0.65,1.15,0.00
14.388,-0.04,0.23,0.86,-0.44,-0.40,-1.13,0.16,0.65,1.15,0.00
14.427,-0.04,0.23,0.86,-0.33,-0.07,-1.21,0.16,0.65,1.15,0.00
14.428,-0.04,0.23,0.86,-0.33,-0.07,-1.21,0.04,0.59,1.00,0.00
14.428,-0.05,0.28,0.86,-0.33,-0.07,-1.21,0.04,0.59,1.00,0.00
14.467,-0.05,0.28,0.86,-0.59,0.18,-0.67,0.04,0.59,1.00,0.00
14.506,-0.05,0.28,0.86,-0.59,0.18,-0.67,0.02,0.28,0.83,0.00
14.507,0.04,0.35,1.02,-0.59,0.18,-0.67,0.02,0.28,0.83,0.00
14.507,0.04,0.35,1.02,0.32,0.64,0.46,0.02,0.28,0.83,0.00
14.546,0.02,0.32,0.97,0.32,0.64,0.46,0.02,0.28,0.83,0.00
14.546,0.02,0.32,0.97,0.92,0.66,1.16,0.02,0.28,0.83,0.00
14.586,0.02,0.32,0.97,0.92,0.66,1.16,0.08,0.26,0.41,0.00
14.586,0.02,0.32,0.97,0.26,0.31,0.09,0.08,0.26,0.41,0.00
14.625,0.02,0.32,0.97,0.36,0.65,-0.00,0.08,0.26,0.41,0.00
14.625,0.06,0.35,1.01,0.36,0.65,-0.00,0.08,0.26,0.41,0.00
14.625,0.06,0.35,1.01,0.36,0.65,-0.00,0.02,0.12,0.15,0.00
14.664,0.06,0.35,1.01,0.99,0.52,0.89,0.02,0.12,0.15,0.00
14.704,0.06,0.35,1.01,0.99,0.52,0.89,-0.22,0.17,-0.07,0.00
14.704,-0.07,0.20,1.13,0.99,0.52,0.89,-0.22,0.17,-0.07,0.00
14.705,-0.07,0.20,1.13,-0.67,-0.57,1.59,-0.22,0.17,-0.07,0.00
14.743,0.08,0.23,1.04,-0.67,-0.57,1.59,-0.22,0.17,-0.07,0.00
14.743,0.08,0.23,1.04,0.16,-1.05,1.81,-0.22,0.17,-0.07,0.00
14.783,0.08,0.23,1.04,0.16,-1.05,1.81,0.18,0.25,0.40,0.00
14.783,0.08,0.23,1.04,1.19,-0.60,0.78,0.18,0.25,0.40,0.00
14.823,0.08,0.23,1.04,1.19,-0.60,0.78,0.56,0.10,0.49,0.00
14.823,0.06,0.21,0.82,1.19,-0.60,0.78,0.56,0.10,0.49,0.00
14.824,0.06,0.21,0.82,0.83,-1.13,-0.59,0.56,0.10,0.49,0.00
14.862,0.06,0.21,0.82,0.92,-1.05,-1.65,0.56,0.10,0.49,0.00
14.901,0.06,0.21,0.82,0.92,-1.05,-1.65,0.12,0.08,0.55,0.00
14.902,0.02,0.27,0.75,0.92,-1.05,-1.65,0.12,0.08,0.55,0.00
14.902,0.02,0.27,0.75,0.49,-0.54,-2.13,0.12,0.08,0.55,0.00
14.941,0.02,0.27,0.75,0.14,-0.37,-1.26,0.12,0.08,0.55,0.00
14.981,0.02,0.27,0.75,0.14,-0.37,-1.26,-0.12,-0.12,0.53,0.00
14.982,0.02,0.27,0.75,-0.18,-0.29,-0.45,-0.12,-0.12,0.53,0.00
14.982,-0.01,0.29,0.89,-0.18,-0.29,-0.45,-0.12,-0.12,0.53,0.00
15.02,0.00,0.36,0.81,-0.18,-0.29,-0.45,-0.12,-0.12,0.53,0.00
15.021,0.00,0.36,0.81,-0.18,-0.29,-0.45,-0.03,0.01,0.64,0.00
15.021,0.00,0.36,0.81,-0.25,0.06,-1.10,-0.03,0.01,0.64,0.00
15.06,0.00,0.36,0.81,-0.10,0.58,-1.40,-0.03,0.01,0.64,0.00
15.099,0.00,0.36,0.81,-0.10,0.58,-1.40,-0.23,-0.09,0.56,0.00
15.099,0.01,0.39,0.92,-0.10,0.58,-1.40,-0.23,-0.09,0.56,0.00
15.099,0.01,0.39,0.92,-0.18,0.93,-0.63,-0.23,-0.09,0.56,0.00
15.138,0.01,0.39,0.92,-0.31,0.95,0.39,-0.23,-0.09,0.56,0.00
15.178,0.01,0.39,0.92,-0.31,0.95,0.39,-0.23,0.07,0.51,0.00
15.179,0.01,0.41,1.01,-0.31,0.95,0.39,-0.23,0.07,0.51,0.00
15.179,0.01,0.41,1.01,-0.23,1.21,0.68,-0.23,0.07,0.51,0.00
15.217,0.01,0.41,0.99,-0.23,1.21,0.68,-0.23,0.07,0.51,0.00
15.218,0.01,0.41,0.99,-0.37,1.16,0.32,-0.23,0.07,0.51,0.00
15.257,0.01,0.41,0.99,-0.37,1.16,0.32,0.09,0.12,0.50,0.00
15.258,0.01,0.41,0.99,-0.26,1.08,0.48,0.09,0.12,0.50,0.00
15.297,0.01,0.41,0.99,-0.26,1.08,0.48,0.04,0.26,0.43,0.00
15.297,-0.01,0.36,1.03,-0.26,1.08,0.48,0.04,0.26,0.43,0.00
15.297,-0.01,0.36,1.03,-0.05,0.62,1.06,0.04,0.26,0.43,0.00
15.336,-0.01,0.36,1.03,-0.73,0.61,0.40,0.04,0.26,0.43,0.00
15.376,-0.01,0.36,1.03,-0.73,0.61,0.40,-0.15,0.39,0.47,0.00
15.376,-0.08,0.30,1.10,-0.73,0.61,0.40,-0.15,0.39,0.47,0.00
15.377,-0.08,0.30,1.10,-0.90,0.21,1.35,-0.15,0.39,0.47,0.00
15.415,-0.07,0.20,1.11,-0.90,0.21,1.35,-0.15,0.39,0.47,0.00
15.416,-0.07,0.20,1.11,-0.71,-0.43,1.57,-0.15,0.39,0.47,0.00
15.455,-0.07,0.20,1.11,-0.71,-0.43,1.57,0.04,0.20,0.69,0.00
15.456,-0.07,0.20,1.11,-0.70,-1.08,1.49,0.04,0.20,0.69,0.00
15.494,-0.07,0.20,1.11,-0.70,-1.08,1.49,0.24,0.37,0.92,0.00
15.494,-0.09,0.20,0.96,-0.70,-1.08,1.49,0.24,0.37,0.92,0.00
15.494,-0.09,0.20,0.96,-1.04,-1.23,-0.45,0.24,0.37,0.92,0.00
15.534,-0.09,0.20,0.96,-0.66,-0.92,0.46,0.24,0.37,0.92,0.00
15.574,-0.09,0.20,0.96,-0.66,-0.92,0.46,0.25,0.20,1.02,0.00
15.574,-0.07,0.17,1.03,-0.66,-0.92,0.46,0.25,0.20,1.02,0.00
15.575,-0.07,0.17,1.03,-0.69,-1.42,1.17,0.25,0.20,1.02,0.00
15.613,-0.07,0.18,0.78,-0.69,-1.42,1.17,0.25,0.20,1.02,0.00
15.613,-0.07,0.18,0.78,-1.03,-1.90,-0.84,0.25,0.20,1.02,0.00
15.653,-0.07,0.18,0.78,-1.03,-1.90,-0.84,0.28,0.51,1.15,0.00
15.653,-0.07,0.18,0.78,-0.64,-1.43,-1.68,0.28,0.51,1.15,0.00
15.695,-0.07,0.18,0.78,-0.64,-1.43,-1.68,0.25,0.17,1.20,0.00
15.695,-0.02,0.28,0.86,-0.64,-1.43,-1.68,0.25,0.17,1.20,0.00
15.696,-0.02,0.28,0.86,-0.14,-0.57,-1.04,0.25,0.17,1.20,0.00
15.733,-0.02,0.28,0.86,-0.55,-0.66,-0.46,0.25,0.17,1.20,0.00
15.772,-0.02,0.28,0.86,-0.55,-0.66,-0.46,0.23,0.08,0.99,0.00
15.773,0.00,0.30,0.92,-0.55,-0.66,-0.46,0.23,0.08,0.99,0.00
15.773,0.00,0.30,0.92,-0.46,-0.64,-0.13,0.23,0.08,0.99,0.00
15.811,0.00,0.30,0.92,0.21,-0.06,-0.03,0.23,0.08,0.99,0.00
15.812,0.10,0.39,0.96,0.21,-0.06,-0.03,0.23,0.08,0.99,0.00
15.851,0.10,0.39,0.96,0.21,-0.06,-0.03,0.17,0.15,0.81,0.00
15.851,0.10,0.39,0.96,0.57,0.24,0.41,0.17,0.15,0.81,0.00
15.89,0.10,0.39,0.96,0.57,0.24,0.41,0.29,0.08,0.41,0.00
15.891,0.10,0.39,0.96,1.01,0.40,0.51,0.29,0.08,0.41,0.00
15.891,0.15,0.43,0.95,1.01,0.40,0.51,0.29,0.08,0.41,0.00
15.93,0.15,0.43,0.95,0.98,0.51,0.18,0.29,0.08,0.41,0.00
15.97,0.15,0.43,0.95,0.98,0.51,0.18,0.13,-0.07,-0.02,0.00
15.971,0.13,0.40,1.01,0.98,0.51,0.18,0.13,-0.07,-0.02,0.00
15.971,0.13,0.40,1.01,0.56,0.05,1.04,0.13,-0.07,-0.02,0.00
16.009,0.13,0.42,1.04,0.56,0.05,1.04,0.13,-0.07,-0.02,0.00
16.009,0.13,0.42,1.04,1.00,0.43,0.42,0.13,-0.07,-0.02,0.00
16.049,0.13,0.42,1.04,1.00,0.43,0.42,-0.10,-0.14,-0.31,0.00
16.049,0.13,0.42,1.04,0.70,0.44,1.16,-0.10,-0.14,-0.31,0.00
16.088,0.13,0.42,1.04,0.70,0.44,1.16,-0.23,0.07,-0.53,0.00
16.089,0.13,0.42,1.04,0.89,-1.28,1.43,-0.23,0.07,-0.53,0.00
16.089,0.11,0.22,0.94,0.89,-1.28,1.43,-0.23,0.07,-0.53,0.00
16.128,0.11,0.22,0.94,0.56,-1.51,-0.51,-0.23,0.07,-0.53,0.00
16.168,0.11,0.22,0.94,0.56,-1.51,-0.51,0.23,-0.15,-0.31,0.00
16.169,0.26,0.26,0.86,0.56,-1.51,-0.51,0.23,-0.15,-0.31,0.00
16.169,0.26,0.26,0.86,1.98,-1.22,-0.49,0.23,-0.15,-0.31,0.00
16.208,0.26,0.26,0.86,2.23,-1.28,-0.83,0.23,-0.15,-0.31,0.00
16.246,0.26,0.26,0.86,2.23,-1.28,-0.83,0.26,-0.29,-0.65,0.00
16.247,0.26,0.26,0.86,0.85,-1.68,-1.63,0.26,-0.29,-0.65,0.00
16.248,0.14,0.22,0.74,0.85,-1.68,-1.63,0.26,-0.29,-0.65,0.00
16.286,0.14,0.22,0.74,0.85,-1.68,-1.63,-0.29,0.05,-0.78,0.00
16.287,0.08,0.35,0.63,0.85,-1.68,-1.63,-0.29,0.05,-0.78,0.00
16.288,0.08,0.35,0.63,0.18,-1.19,-3.07,-0.29,0.05,-0.78,0.00
16.325,0.08,0.35,0.63,0.43,0.16,-2.62,-0.29,0.05,-0.78,0.00
16.365,0.08,0.35,0.63,-0.58,-0.14,-0.53,-0.29,0.05,-0.78,0.00
16.366,-0.08,0.29,0.88,-0.58,-0.14,-0.53,-0.29,0.05,-0.78,0.00
16.366,-0.08,0.29,0.88,-0.58,-0.14,-0.53,-0.70,-0.41,-0.94,0.00
16.404,-0.08,0.29,0.88,-1.93,-0.58,-0.38,-0.70,-0.41,-0.94,0.00
16.444,-0.08,0.29,0.88,-0.99,0.92,0.15,-0.70,-0.41,-0.94,0.00
16.445,-0.08,0.29,0.88,-0.99,0.92,0.15,-0.66,-0.16,-0.44,0.00
16.445,-0.06,0.39,0.97,-0.99,0.92,0.15,-0.66,-0.16,-0.44,0.00
16.483,-0.02,0.45,1.17,-0.99,0.92,0.15,-0.66,-0.16,-0.44,0.00
16.484,-0.02,0.45,1.17,-1.16,1.66,1.58,-0.66,-0.16,-0.44,0.00
16.523,-0.02,0.45,1.17,-0.62,1.57,2.39,-0.66,-0.16,-0.44,0.00
16.523,-0.02,0.45,1.17,-0.62,1.57,2.39,-0.26,-0.32,0.00,0.00
16.562,-0.02,0.45,1.17,-0.62,1.57,2.39,0.18,-0.12,0.13,0.00
16.563,0.05,0.42,1.14,-0.62,1.57,2.39,0.18,-0.12,0.13,0.00
16.564,0.05,0.42,1.14,-0.25,1.28,2.40,0.18,-0.12,0.13,0.00
16.603,0.05,0.42,1.14,0.10,1.10,1.29,0.18,-0.12,0.13,0.00
16.641,0.05,0.42,1.14,0.10,1.10,1.29,0.28,0.22,0.09,0.00
16.642,-0.01,0.39,0.99,0.10,1.10,1.29,0.28,0.22,0.09,0.00
16.642,-0.01,0.39,0.99,-0.43,0.64,0.71,0.28,0.22,0.09,0.00
16.681,-0.03,0.35,1.02,-0.43,0.64,0.71,0.28,0.22,0.09,0.00
16.682,-0.03,0.35,1.02,-0.79,0.57,-1.11,0.28,0.22,0.09,0.00
16.721,-0.03,0.35,1.02,-0.79,0.57,-1.11,0.13,0.23,0.07,0.00
16.721,-0.03,0.35,1.02,-0.56,0.14,1.02,0.13,0.23,0.07,0.00
16.761,-0.03,0.35,1.02,-1.04,-1.28,2.06,0.13,0.23,0.07,0.00
16.761,-0.03,0.35,1.02,-1.04,-1.28,2.06,0.02,0.34,0.21,0.00
16.762,-0.10,0.19,1.02,-1.04,-1.28,2.06,0.02,0.34,0.21,0.00
16.799,-0.10,0.19,1.02,-1.24,-1.50,-0.45,0.02,0.34,0.21,0.00
16.839,-0.10,0.19,1.02,-0.59,-0.85,-0.09,0.02,0.34,0.21,0.00
16.84,-0.10,0.19,1.02,-0.59,-0.85,-0.09,0.43,0.26,0.67,0.00
16.841,-0.02,0.27,0.93,-0.59,-0.85,-0.09,0.43,0.26,0.67,0.00
16.879,-0.02,0.27,0.93,0.27,-0.98,0.29,0.43,0.26,0.67,0.00
16.88,0.04,0.26,0.93,0.27,-0.98,0.29,0.43,0.26,0.67,0.00
16.918,0.04,0.26,0.93,0.27,-0.98,0.29,0.47,0.07,0.57,0.00
16.919,0.04,0.26,0.93,0.17,-1.14,-0.04,0.47,0.07,0.57,0.00
16.958,0.04,0.26,0.93,0.17,-1.14,-0.04,-0.03,0.28,0.44,0.00
16.959,0.04,0.26,0.93,0.53,-1.17,0.40,-0.03,0.28,0.44,0.00
16.96,0.07,0.24,0.91,0.53,-1.17,0.40,-0.03,0.28,0.44,0.00
17.0,0.07,0.24,0.91,0.59,-1.23,-0.61,-0.03,0.28,0.44,0.00
17.037,0.08,0.25,0.75,0.59,-1.23,-0.61,-0.03,0.28,0.44,0.00
17.038,0.08,0.25,0.75,0.59,-1.23,-0.61,-0.02,0.33,0.31,0.00
17.038,0.08,0.25,0.75,0.71,-1.15,-2.04,-0.02,0.33,0.31,0.00
17.077,0.07,0.27,0.87,0.71,-1.15,-2.04,-0.02,0.33,0.31,0.00
17.077,0.07,0.27,0.87,0.55,-1.02,-0.75,-0.02,0.33,0.31,0.00
17.116,0.07,0.27,0.87,0.55,-1.02,-0.75,0.02,-0.09,0.21,0.00
17.116,0.07,0.27,0.87,0.49,-0.89,-0.51,0.02,-0.09,0.21,0.00
17.156,0.07,0.27,0.87,0.49,-0.89,-0.51,0.04,-0.32,0.10,0.00
17.157,0.07,0.27,0.87,1.33,-0.21,0.22,0.04,-0.32,0.10,0.00
17.158,0.21,0.37,1.04,1.33,-0.21,0.22,0.04,-0.32,0.10,0.00
17.195,0.21,0.37,1.04,1.69,0.23,1.62,0.04,-0.32,0.10,0.00
17.235,0.21,0.37,1.04,1.69,0.23,1.62,-0.10,-0.16,-0.30,0.00
17.235,0.10,0.39,0.98,1.69,0.23,1.62,-0.10,-0.16,-0.30,0.00
17.235,0.10,0.39,0.98,0.56,0.12,1.08,-0.10,-0.16,-0.30,0.00
17.274,0.10,0.39,0.98,0.45,0.79,-0.62,-0.10,-0.16,-0.30,0.00
17.314,0.25,0.35,1.05,0.45,0.79,-0.62,-0.10,-0.16,-0.30,0.00
17.314,0.25,0.35,1.05,0.45,0.79,-0.62,-0.41,-0.42,-0.73,0.00
17.314,0.25,0.35,1.05,1.80,0.26,1.08,-0.41,-0.42,-0.73,0.00
17.354,0.25,0.35,1.05,1.80,0.26,1.08,-0.76,-0.03,-1.02,0.00
17.354,-0.09,0.08,0.94,1.80,0.26,1.08,-0.76,-0.03,-1.02,0.00
17.355,-0.09,0.08,0.94,-0.83,-1.89,3.03,-0.76,-0.03,-1.02,0.00
17.393,-0.09,0.08,0.94,-1.36,-2.13,-1.39,-0.76,-0.03,-1.02,0.00
17.432,-0.09,0.08,0.94,-1.36,-2.13,-1.39,0.20,0.01,-0.14,0.00
17.433,0.17,0.38,0.81,-1.36,-2.13,-1.39,0.20,0.01,-0.14,0.00
17.433,0.17,0.38,0.81,-0.19,0.61,-2.75,0.20,0.01,-0.14,0.00
17.472,0.17,0.38,0.81,3.25,0.70,1.05,0.20,0.01,-0.14,0.00
17.511,0.17,0.38,0.81,3.25,0.70,1.05,0.47,-1.03,-0.92,0.00
17.512,0.11,0.20,1.00,3.25,0.70,1.05,0.47,-1.03,-0.92,0.00
17.512,0.11,0.20,1.00,0.49,-1.34,0.87,0.47,-1.03,-0.92,0.00
17.551,0.11,0.20,1.00,-1.75,-1.25,-1.82,0.47,-1.03,-0.92,0.00
17.552,-0.02,0.29,0.80,-1.75,-1.25,-1.82,0.47,-1.03,-0.92,0.00
17.591,-0.02,0.29,0.80,-1.75,-1.25,-1.82,-0.45,0.23,-0.60,0.00
17.591,-0.02,0.29,0.80,-0.49,0.24,-1.22,-0.45,0.23,-0.60,0.00
17.63,-0.02,0.29,0.80,-0.49,0.24,-1.22,-0.38,-0.10,-0.32,0.00
17.631,-0.01,0.30,0.94,-0.49,0.24,-1.22,-0.38,-0.10,-0.32,0.00
17.631,-0.01,0.30,0.94,-0.28,0.41,-0.00,-0.38,-0.10,-0.32,0.00
17.67,-0.01,0.30,0.94,-1.18,-0.17,-0.23,-0.38,-0.10,-0.32,0.00
17.709,-0.01,0.30,0.94,-1.18,-0.17,-0.23,-0.03,0.02,0.06,0.00
17.709,0.02,0.38,0.86,-1.18,-0.17,-0.23,-0.03,0.02,0.06,0.00
17.71,0.02,0.38,0.86,-0.36,0.76,-0.79,-0.03,0.02,0.06,0.00
17.749,0.01,0.43,0.77,-0.36,0.76,-0.79,-0.03,0.02,0.06,0.00
17.749,0.01,0.43,0.77,0.21,1.31,-1.38,-0.03,0.02,0.06,0.00
17.789,0.01,0.43,0.77,0.21,1.31,-1.38,0.01,0.14,0.18,0.00
17.789,0.01,0.43,0.77,-0.55,1.37,-1.78,0.01,0.14,0.18,0.00
17.828,0.01,0.43,0.77,-0.55,1.37,-1.78,-0.25,0.02,0.24,0.00
17.828,0.04,0.42,0.95,-0.55,1.37,-1.78,-0.25,0.02,0.24,0.00
17.828,0.04,0.42,0.95,-0.34,1.26,-0.30,-0.25,0.02,0.24,0.00
17.867,0.04,0.42,0.95,0.10,1.49,0.44,-0.25,0.02,0.24,0.00
17.907,0.04,0.42,0.95,0.10,1.49,0.44,-0.04,0.27,0.32,0.00
17.908,0.03,0.44,0.89,0.10,1.49,0.44,-0.04,0.27,0.32,0.00
17.908,0.03,0.44,0.89,-0.07,1.48,-0.46,-0.04,0.27,0.32,0.00
17.946,0.03,0.44,0.89,-0.02,1.59,-0.73,-0.04,0.27,0.32,0.00
17.947,0.16,0.45,0.95,-0.02,1.59,-0.73,-0.04,0.27,0.32,0.00
17.986,0.16,0.45,0.95,-0.02,1.59,-0.73,0.11,0.22,0.37,0.00
17.987,0.16,0.45,0.95,1.47,1.52,0.22,0.11,0.22,0.37,0.00
18.025,0.16,0.45,0.95,1.47,1.52,0.22,-0.05,0.45,0.14,0.00
18.026,-0.12,0.27,1.04,1.47,1.52,0.22,-0.05,0.45,0.14,0.00
18.026,-0.12,0.27,1.04,-0.24,0.34,1.78,-0.05,0.45,0.14,0.00
18.065,-0.12,0.27,1.04,-2.07,-0.47,0.17,-0.05,0.45,0.14,0.00
18.105,0.03,0.22,1.48,-2.07,-0.47,0.17,-0.05,0.45,0.14,0.00
18.105,0.03,0.22,1.48,-2.07,-0.47,0.17,-0.13,-0.05,0.52,0.00
18.106,0.03,0.22,1.48,-0.33,-0.04,5.39,-0.13,-0.05,0.52,0.00
18.144,-0.15,0.02,0.81,-0.33,-0.04,5.39,-0.13,-0.05,0.52,0.00
18.145,-0.15,0.02,0.81,1.14,-2.09,4.36,-0.13,-0.05,0.52,0.00
18.184,-0.15,0.02,0.81,1.14,-2.09,4.36,0.39,0.39,0.47,0.00
18.184,-0.15,0.02,0.81,-1.72,-2.77,-1.83,0.39,0.39,0.47,0.00
18.224,-0.15,0.02,0.81,-1.72,-2.77,-1.83,-0.02,-0.48,0.75,0.00
18.224,-0.04,0.09,1.18,-1.72,-2.77,-1.83,-0.02,-0.48,0.75,0.00
18.224,-0.04,0.09,1.18,-1.17,-1.74,0.51,-0.02,-0.48,0.75,0.00
18.263,-0.04,0.09,1.18,-0.68,-2.00,3.08,-0.02,-0.48,0.75,0.00
18.304,-0.04,0.09,1.18,-0.68,-2.00,3.08,0.13,0.30,0.70,0.00
18.305,-0.16,-0.02,0.84,-0.68,-2.00,3.08,0.13,0.30,0.70,0.00
18.305,-0.16,-0.02,0.84,-1.95,-3.35,-0.63,0.13,0.30,0.70,0.00
18.342,0.05,0.23,0.92,-1.95,-3.35,-0.63,0.13,0.30,0.70,0.00
18.343,0.05,0.23,0.92,-1.89,-2.32,-2.32,0.13,0.30,0.70,0.00
18.382,0.05,0.23,0.92,-0.08,-0.76,-0.27,0.13,0.30,0.70,0.00
18.383,0.05,0.23,0.92,-0.08,-0.76,-0.27,0.35,0.02,1.15,0.00
18.422,0.05,0.23,0.92,-0.08,-0.76,-0.27,0.37,-0.12,0.75,0.00
18.422,-0.04,0.19,0.92,-0.08,-0.76,-0.27,0.37,-0.12,0.75,0.00
18.422,-0.04,0.19,0.92,-0.51,-1.09,0.20,0.37,-0.12,0.75,0.00
18.461,-0.04,0.19,0.92,-1.38,-1.24,-0.42,0.37,-0.12,0.75,0.00
18.501,-0.04,0.19,0.92,-1.38,-1.24,-0.42,-0.14,0.28,0.85,0.00
18.502,-0.01,0.25,0.87,-1.38,-1.24,-0.42,-0.14,0.28,0.85,0.00
18.502,-0.01,0.25,0.87,-0.86,-0.61,-0.88,-0.14,0.28,0.85,0.00
18.54,-0.01,0.25,0.87,-0.70,-0.28,-0.37,-0.14,0.28,0.85,0.00
18.579,-0.01,0.25,0.87,-0.70,-0.28,-0.37,-0.16,0.08,0.90,0.00
18.58,-0.01,0.25,0.87,-0.96,-0.26,0.51,-0.16,0.08,0.90,0.00
18.581,-0.02,0.26,0.99,-0.96,-0.26,0.51,-0.16,0.08,0.90,0.00
18.619,-0.02,0.26,0.99,-0.96,-0.26,0.51,0.01,0.26,1.14,0.00
18.619,-0.01,0.31,0.86,-0.96,-0.26,0.51,0.01,0.26,1.14,0.00
18.62,-0.01,0.31,0.86,-1.28,-0.18,-0.26,0.01,0.26,1.14,0.00
18.658,-0.01,0.31,0.86,-0.75,0.45,-1.08,0.01,0.26,1.14,0.00
18.698,-0.01,0.31,0.86,-0.75,0.45,-1.08,-0.00,0.02,1.20,0.00
18.699,0.06,0.39,0.93,-0.75,0.45,-1.08,-0.00,0.02,1.20,0.00
18.7,0.06,0.39,0.93,-0.35,1.06,-0.63,-0.00,0.02,1.20,0.00
18.737,0.06,0.39,0.93,-0.50,1.13,0.57,-0.00,0.02,1.20,0.00
18.777,0.04,0.41,0.96,-0.50,1.13,0.57,-0.00,0.02,1.20,0.00
18.778,0.04,0.41,0.96,-0.50,1.13,0.57,0.11,-0.06,1.00,0.00
18.778,0.04,0.41,0.96,-0.85,1.25,0.10,0.11,-0.06,1.00,0.00
18.817,0.05,0.38,0.96,-0.85,1.25,0.10,0.11,-0.06,1.00,0.00
18.818,0.05,0.38,0.96,-0.49,1.27,0.33,0.11,-0.06,1.00,0.00
18.856,0.05,0.38,0.96,-0.49,1.27,0.33,0.12,-0.02,0.81,0.00
18.857,0.05,0.38,0.96,-0.90,0.80,0.20,0.12,-0.02,0.81,0.00
18.895,0.05,0.38,0.96,-0.90,0.80,0.20,0.30,0.12,0.72,0.00
18.896,0.05,0.38,0.96,-1.34,0.22,-0.65,0.30,0.12,0.72,0.00
18.897,0.03,0.35,0.93,-1.34,0.22,-0.65,0.30,0.12,0.72,0.00
18.935,0.03,0.35,0.93,-0.73,0.72,0.55,0.30,0.12,0.72,0.00
18.975,0.03,0.35,0.93,-0.73,0.72,0.55,0.33,0.16,0.55,0.00
18.976,0.03,0.35,0.93,-0.71,0.46,0.38,0.33,0.16,0.55,0.00
18.977,0.07,0.36,0.98,-0.71,0.46,0.38,0.33,0.16,0.55,0.00
19.014,0.05,0.25,1.07,-0.71,0.46,0.38,0.33,0.16,0.55,0.00
19.015,0.05,0.25,1.07,-0.42,0.53,0.59,0.33,0.16,0.55,0.00
19.054,0.05,0.25,1.07,-0.42,0.53,0.59,-0.25,0.09,0.35,0.00
19.054,0.05,0.25,1.07,-0.83,-0.52,1.34,-0.25,0.09,0.35,0.00
19.093,0.05,0.25,1.07,-0.83,-0.52,1.34,-0.42,0.55,0.61,0.00
19.094,0.05,0.25,1.07,-1.67,-1.32,0.07,-0.42,0.55,0.61,0.00
19.094,-0.03,0.15,0.99,-1.67,-1.32,0.07,-0.42,0.55,0.61,0.00
19.133,-0.03,0.15,0.99,-1.11,-0.83,0.49,-0.42,0.55,0.61,0.00
19.173,0.15,0.20,1.08,-1.11,-0.83,0.49,-0.42,0.55,0.61,0.00
19.174,0.15,0.20,1.08,0.24,-0.64,1.30,-0.42,0.55,0.61,0.00
19.174,0.15,0.20,1.08,0.24,-0.64,1.30,0.22,0.28,1.02,0.00
19.212,0.13,0.16,0.94,0.24,-0.64,1.30,0.22,0.28,1.02,0.00
19.213,0.13,0.16,0.94,1.09,-1.01,1.13,0.22,0.28,1.02,0.00
19.251,0.13,0.16,0.94,1.09,-1.01,1.13,0.51,0.47,0.86,0.00
19.252,0.13,0.16,0.94,0.38,-1.34,-0.22,0.51,0.47,0.86,0.00
19.291,0.13,0.16,0.94,0.38,-1.34,-0.22,0.03,0.66,0.87,0.00
19.292,0.07,0.14,0.91,0.38,-1.34,-0.22,0.03,0.66,0.87,0.00
19.292,0.07,0.14,0.91,-0.21,-1.51,-1.11,0.03,0.66,0.87,0.00
19.331,0.07,0.14,0.91,0.10,-1.24,0.00,0.03,0.66,0.87,0.00
19.37,0.07,0.14,0.91,0.10,-1.24,0.00,0.11,0.39,0.95,0.00
19.371,0.03,0.12,0.97,0.10,-1.24,0.00,0.11,0.39,0.95,0.00
19.371,0.03,0.12,0.97,-0.10,-1.57,0.62,0.11,0.39,0.95,0.00
19.414,0.00,0.23,0.80,-0.10,-1.57,0.62,0.11,0.39,0.95,0.00
19.415,0.00,0.23,0.80,-0.65,-1.56,-0.90,0.11,0.39,0.95,0.00
19.449,0.00,0.23,0.80,-0.65,-1.56,-0.90,0.07,0.72,1.21,0.00
19.45,0.00,0.23,0.80,-0.34,-0.42,-1.49,0.07,0.72,1.21,0.00
19.489,0.00,0.23,0.80,-0.34,-0.42,-1.49,-0.05,0.38,1.30,0.00
19.49,0.05,0.30,0.90,-0.34,-0.42,-1.49,-0.05,0.38,1.30,0.00
19.49,0.05,0.30,0.90,0.16,0.26,-1.24,-0.05,0.38,1.30,0.00
19.528,0.05,0.30,0.90,0.08,0.27,-0.05,-0.05,0.38,1.30,0.00
19.569,0.05,0.30,0.90,0.08,0.27,-0.05,-0.11,0.34,1.26,0.00
19.569,0.03,0.30,0.98,0.08,0.27,-0.05,-0.11,0.34,1.26,0.00
19.57,0.03,0.30,0.98,-0.17,0.28,0.32,-0.11,0.34,1.26,0.00
19.608,0.03,0.30,0.98,0.17,0.43,0.03,-0.11,0.34,1.26,0.00
19.647,0.03,0.30,0.98,0.70,1.03,1.10,-0.11,0.34,1.26,0.00
19.648,0.12,0.38,1.06,0.70,1.03,1.10,-0.11,0.34,1.26,0.00
19.648,0.12,0.38,1.06,0.70,1.03,1.10,0.10,0.27,1.34,0.00
19.687,0.12,0.38,1.06,0.70,1.03,1.10,0.35,0.37,1.08,0.00
19.688,0.05,0.34,1.00,0.70,1.03,1.10,0.35,0.37,1.08,0.00
19.688,0.05,0.34,1.00,0.55,0.77,0.92,0.35,0.37,1.08,0.00
19.726,0.05,0.34,1.00,-0.17,0.45,0.31,0.35,0.37,1.08,0.00
19.766,-0.04,0.32,1.01,-0.17,0.45,0.31,0.35,0.37,1.08,0.00
19.766,-0.04,0.32,1.01,-0.17,0.45,0.31,0.17,0.59,0.97,0.00
19.767,-0.04,0.32,1.01,-0.49,0.24,0.93,0.17,0.59,0.97,0.00
19.805,-0.04,0.32,1.01,-0.79,0.15,0.08,0.17,0.59,0.97,0.00
19.845,-0.04,0.32,1.01,-1.70,-0.57,1.07,0.17,0.59,0.97,0.00
19.845,-0.15,0.22,1.08,-1.70,-0.57,1.07,0.17,0.59,0.97,0.00
19.845,-0.15,0.22,1.08,-1.70,-0.57,1.07,-0.03,0.37,1.01,0.00
19.884,-0.08,0.16,1.23,-1.70,-0.57,1.07,-0.03,0.37,1.01,0.00
19.885,-0.08,0.16,1.23,-1.47,-1.38,2.92,-0.03,0.37,1.01,0.00
19.924,-0.08,0.16,1.23,-1.47,-1.38,2.92,-0.15,-0.03,1.46,0.00
19.924,-0.08,0.16,1.23,-0.95,-1.16,2.58,-0.15,-0.03,1.46,0.00
19.963,-0.08,0.16,1.23,-0.95,-1.16,2.58,0.45,0.59,1.57,0.00
19.964,-0.15,0.12,0.93,-0.95,-1.16,2.58,0.45,0.59,1.57,0.00
19.965,-0.15,0.12,0.93,-2.23,-1.55,-0.40,0.45,0.59,1.57,0.00
20.003,-0.15,0.12,0.93,-1.03,-2.04,-0.05,0.45,0.59,1.57,0.00
20.043,-0.15,0.12,0.93,-1.03,-2.04,-0.05,0.45,0.49,1.68,0.00
20.044,-0.14,0.07,0.89,-1.03,-2.04,-0.05,0.45,0.49,1.68,0.00
20.044,-0.14,0.07,0.89,-1.60,-2.46,-0.36,0.45,0.49,1.68,0.00
20.082,-0.05,0.20,0.83,-1.60,-2.46,-0.36,0.45,0.49,1.68,0.00
20.082,-0.05,0.20,0.83,-1.73,-2.27,-1.40,0.45,0.49,1.68,0.00
20.121,-0.05,0.20,0.83,-0.67,-1.14,-0.95,0.45,0.49,1.68,0.00
20.122,-0.05,0.20,0.83,-0.67,-1.14,-0.95,0.38,0.51,1.82,0.00
20.161,-0.05,0.20,0.83,-0.67,-1.14,-0.95,0.21,0.10,1.43,0.00
20.161,0.01,0.25,0.97,-0.67,-1.14,-0.95,0.21,0.10,1.43,0.00
20.161,0.01,0.25,0.97,-0.43,-0.81,0.07,0.21,0.10,1.43,0.00
20.2,0.01,0.25,0.97,-0.51,-1.01,0.70,0.21,0.10,1.43,0.00
20.241,0.01,0.25,0.97,-0.51,-1.01,0.70,0.01,0.35,1.13,0.00
20.241,0.05,0.28,0.93,-0.51,-1.01,0.70,0.01,0.35,1.13,0.00
20.242,0.05,0.28,0.93,-0.10,-0.61,0.06,0.01,0.35,1.13,0.00
20.279,0.07,0.37,0.97,-0.10,-0.61,0.06,0.01,0.35,1.13,0.00
20.279,0.07,0.37,0.97,-0.04,-0.05,-0.39,0.01,0.35,1.13,0.00
20.318,0.07,0.37,0.97,-0.04,-0.05,-0.39,0.11,0.23,0.92,0.00
20.319,0.07,0.37,0.97,0.01,0.34,0.42,0.11,0.23,0.92,0.00
20.358,0.07,0.37,0.97,0.01,0.34,0.42,0.21,-0.08,0.66,0.00
20.358,0.17,0.46,1.11,0.01,0.34,0.42,0.21,-0.08,0.66,0.00
20.358,0.17,0.46,1.11,0.56,0.93,1.46,0.21,-0.08,0.66,0.00
20.398,0.17,0.46,1.11,1.01,1.03,1.99,0.21,-0.08,0.66,0.00
20.437,0.17,0.46,1.11,1.01,1.03,1.99,0.24,0.08,0.25,0.00
20.438,0.12,0.39,0.94,1.01,1.03,1.99,0.24,0.08,0.25,0.00
20.438,0.12,0.39,0.94,0.51,0.36,0.26,0.24,0.08,0.25,0.00
20.477,0.03,0.31,0.95,0.51,0.36,0.26,0.24,0.08,0.25,0.00
20.477,0.03,0.31,0.95,-0.20,-0.09,-0.37,0.24,0.08,0.25,0.00
20.516,0.03,0.31,0.95,-0.20,-0.09,-0.37,0.07,-0.15,0.04,0.00
20.517,0.03,0.31,0.95,-0.70,-0.59,0.27,0.07,-0.15,0.04,0.00
20.556,0.03,0.31,0.95,-0.70,-0.59,0.27,0.02,0.06,0.15,0.00
20.556,-0.00,0.27,0.96,-0.70,-0.59,0.27,0.02,0.06,0.15,0.00
20.557,-0.00,0.27,0.96,-0.88,-0.98,1.01,0.02,0.06,0.15,0.00
20.595,-0.00,0.27,0.96,-0.94,-0.92,-0.01,0.02,0.06,0.15,0.00
20.635,0.08,0.32,0.90,-0.94,-0.92,-0.01,0.02,0.06,0.15,0.00
20.636,0.08,0.32,0.90,-0.94,-0.92,-0.01,0.29,0.26,0.50,0.00
20.636,0.08,0.32,0.90,-0.54,-0.61,-0.18,0.29,0.26,0.50,0.00
20.675,0.08,0.32,0.90,0.84,-0.69,-0.19,0.29,0.26,0.50,0.00
20.716,0.08,0.32,0.90,0.84,-0.69,-0.19,0.59,0.03,0.34,0.00
20.717,0.07,0.32,0.80,0.84,-0.69,-0.19,0.59,0.03,0.34,0.00
20.717,0.07,0.32,0.80,-0.22,-0.91,-1.04,0.59,0.03,0.34,0.00
20.754,0.07,0.32,0.80,-0.22,-0.91,-1.04,-0.15,0.27,0.27,0.00
20.754,0.00,0.31,0.92,-0.22,-0.91,-1.04,-0.15,0.27,0.27,0.00
20.754,0.00,0.31,0.92,-1.13,-1.07,0.08,-0.15,0.27,0.27,0.00
20.793,0.00,0.31,0.92,-0.54,-0.74,0.17,-0.15,0.27,0.27,0.00
20.833,-0.04,0.31,0.83,-0.54,-0.74,0.17,-0.15,0.27,0.27,0.00
20.833,-0.04,0.31,0.83,-0.54,-0.74,0.17,-0.06,0.50,0.53,0.00
20.833,-0.04,0.31,0.83,-0.99,-0.79,-0.84,-0.06,0.50,0.53,0.00
20.873,-0.04,0.31,0.83,-1.05,-0.84,-0.58,-0.06,0.50,0.53,0.00
20.912,-0.04,0.31,0.83,-1.05,-0.84,-0.58,0.11,0.33,0.87,0.00
20.913,-0.09,0.34,0.87,-1.05,-0.84,-0.58,0.11,0.33,0.87,0.00
20.913,-0.09,0.34,0.87,-1.60,-0.55,-0.45,0.11,0.33,0.87,0.00
20.952,-0.09,0.34,0.87,-1.60,-0.55,-0.45,0.10,0.39,1.31,0.00
20.952,-0.09,0.34,0.87,-0.39,-0.00,0.05,0.10,0.39,1.31,0.00
20.952,0.10,0.46,0.88,-0.39,-0.00,0.05,0.10,0.39,1.31,0.00
20.991,0.10,0.46,0.88,0.51,0.84,-0.34,0.10,0.39,1.31,0.00
21.031,0.10,0.46,0.88,0.51,0.84,-0.34,0.08,0.36,1.06,0.00
21.032,0.09,0.48,0.86,0.51,0.84,-0.34,0.08,0.36,1.06,0.00
21.032,0.09,0.48,0.86,0.04,0.77,-0.64,0.08,0.36,1.06,0.00
21.07,0.09,0.48,0.86,0.24,0.78,-0.28,0.08,0.36,1.06,0.00
21.11,0.09,0.48,0.86,0.24,0.78,-0.28,0.08,0.30,0.78,0.00
21.11,0.06,0.47,0.91,0.24,0.78,-0.28,0.08,0.30,0.78,0.00
21.11,0.06,0.47,0.91,-0.16,0.74,0.02,0.08,0.30,0.78,0.00
21.149,0.07,0.50,0.90,-0.16,0.74,0.02,0.08,0.30,0.78,0.00
21.15,0.07,0.50,0.90,-0.51,0.38,0.05,0.08,0.30,0.78,0.00
21.189,0.07,0.50,0.90,-0.51,0.38,0.05,0.15,0.42,0.67,0.00
21.189,0.07,0.50,0.90,0.12,0.98,-0.07,0.15,0.42,0.67,0.00
21.228,0.07,0.50,0.90,0.12,0.98,-0.07,0.15,0.38,0.54,0.00
21.229,0.08,0.48,0.97,0.12,0.98,-0.07,0.15,0.38,0.54,0.00
21.229,0.08,0.48,0.97,0.47,0.96,0.32,0.15,0.38,0.54,0.00
21.268,0.08,0.48,0.97,-0.10,0.25,1.03,0.15,0.38,0.54,0.00
21.308,0.08,0.48,0.97,-0.10,0.25,1.03,0.24,0.44,0.62,0.00
21.309,-0.03,0.44,0.85,-0.10,0.25,1.03,0.24,0.44,0.62,0.00
21.309,-0.03,0.44,0.85,-1.13,0.01,-0.51,0.24,0.44,0.62,0.00
21.347,-0.03,0.44,0.85,0.31,0.50,0.19,0.24,0.44,0.62,0.00
21.348,0.22,0.47,1.05,0.31,0.50,0.19,0.24,0.44,0.62,0.00
21.387,0.22,0.47,1.05,0.31,0.50,0.19,0.50,-0.24,0.88,0.00
21.387,0.22,0.47,1.05,1.43,0.01,1.83,0.50,-0.24,0.88,0.00
21.426,0.22,0.47,1.05,-1.60,-1.96,0.28,0.50,-0.24,0.88,0.00
21.427,-0.13,0.28,0.83,-1.60,-1.96,0.28,0.50,-0.24,0.88,0.00
21.427,-0.13,0.28,0.83,-1.60,-1.96,0.28,-0.03,0.71,0.65,0.00
21.466,-0.13,0.28,0.83,-2.24,-1.19,-1.35,-0.03,0.71,0.65,0.00
21.505,-0.13,0.28,0.83,-2.24,-1.19,-1.35,-0.14,0.38,1.14,0.00
21.506,0.08,0.41,1.04,-2.24,-1.19,-1.35,-0.14,0.38,1.14,0.00
21.507,0.08,0.41,1.04,-0.09,-0.12,1.50,-0.14,0.38,1.14,0.00
21.545,0.04,0.33,0.91,-0.09,-0.12,1.50,-0.14,0.38,1.14,0.00
21.545,0.04,0.33,0.91,-0.05,-0.70,1.30,-0.14,0.38,1.14,0.00
21.585,0.04,0.33,0.91,-0.05,-0.70,1.30,0.45,0.05,0.68,0.00
21.586,0.04,0.33,0.91,-0.58,-1.23,0.16,0.45,0.05,0.68,0.00
21.624,0.06,0.29,0.82,-0.58,-1.23,0.16,0.45,0.05,0.68,0.00
21.625,0.06,0.29,0.82,-0.58,-1.23,0.16,-0.10,0.41,0.57,0.00
21.625,0.06,0.29,0.82,-0.57,-1.58,-0.99,-0.10,0.41,0.57,0.00
21.664,0.06,0.29,0.82,-0.07,-1.27,-0.50,-0.10,0.41,0.57,0.00
21.703,0.06,0.29,0.82,-0.07,-1.27,-0.50,-0.24,0.48,0.59,0.00
21.704,0.10,0.38,0.83,-0.07,-1.27,-0.50,-0.24,0.48,0.59,0.00
21.705,0.10,0.38,0.83,0.49,-0.45,-0.79,-0.24,0.48,0.59,0.00
21.743,0.19,0.46,0.92,0.49,-0.45,-0.79,-0.24,0.48,0.59,0.00
21.743,0.19,0.46,0.92,-0.28,-0.17,-0.41,-0.24,0.48,0.59,0.00
21.783,0.19,0.46,0.92,1.01,0.29,0.28,-0.24,0.48,0.59,0.00
21.783,0.19,0.46,0.92,1.01,0.29,0.28,0.14,0.03,0.56,0.00
21.822,0.24,0.52,0.83,1.01,0.29,0.28,0.14,0.03,0.56,0.00
21.823,0.24,0.52,0.83,1.01,0.29,0.28,0.40,-0.04,0.25,0.00
21.823,0.24,0.52,0.83,1.52,0.81,-0.57,0.40,-0.04,0.25,0.00
21.861,0.24,0.52,0.83,1.19,0.62,-0.46,0.40,-0.04,0.25,0.00
21.901,0.24,0.52,0.83,0.72,0.06,0.90,0.40,-0.04,0.25,0.00
21.902,0.24,0.52,0.83,0.72,0.06,0.90,0.06,-0.29,-0.18,0.00
21.902,0.17,0.47,0.94,0.72,0.06,0.90,0.06,-0.29,-0.18,0.00
21.941,0.17,0.47,0.94,0.17,0.40,0.01,0.06,-0.29,-0.18,0.00
21.981,0.21,0.48,0.99,0.17,0.40,0.01,0.06,-0.29,-0.18,0.00
21.981,0.21,0.48,0.99,0.17,0.40,0.01,-0.07,-0.51,-0.41,0.00
21.981,0.21,0.48,0.99,0.62,0.33,1.05,-0.07,-0.51,-0.41,0.00
22.022,0.21,0.48,0.99,0.62,0.33,1.05,-0.53,-0.52,-0.60,0.00
22.023,0.12,0.29,1.10,0.62,0.33,1.05,-0.53,-0.52,-0.60,0.00
22.023,0.12,0.29,1.10,-0.42,-0.57,3.54,-0.53,-0.52,-0.60,0.00
22.059,0.12,0.29,1.10,0.06,-1.52,1.40,-0.53,-0.52,-0.60,0.00
22.099,0.12,0.29,1.10,-0.68,-0.93,-1.47,-0.53,-0.52,-0.60,0.00
22.1,0.10,0.35,0.77,-0.68,-0.93,-1.47,-0.53,-0.52,-0.60,0.00
22.1,0.10,0.35,0.77,-0.68,-0.93,-1.47,-0.19,0.66,-0.21,0.00
22.138,0.10,0.35,0.77,1.00,-0.29,-0.90,-0.19,0.66,-0.21,0.00
22.178,0.10,0.35,0.77,1.00,-0.29,-0.90,0.53,-0.16,-0.24,0.00
22.179,0.37,0.42,0.94,1.00,-0.29,-0.90,0.53,-0.16,-0.24,0.00
22.179,0.37,0.42,0.94,2.74,-0.34,0.78,0.53,-0.16,-0.24,0.00
22.217,0.37,0.42,0.94,1.40,-0.46,-1.53,0.53,-0.16,-0.24,0.00
22.218,0.01,0.41,0.70,1.40,-0.46,-1.53,0.53,-0.16,-0.24,0.00
22.257,0.01,0.41,0.70,1.40,-0.46,-1.53,0.68,0.18,-1.13,0.00
22.257,0.01,0.41,0.70,-1.09,-0.84,-1.70,0.68,0.18,-1.13,0.00
22.297,0.01,0.41,0.70,-1.09,-0.84,-1.70,-0.36,0.31,-0.64,0.00
22.298,0.01,0.41,0.85,-1.09,-0.84,-1.70,-0.36,0.31,-0.64,0.00
22.298,0.01,0.41,0.85,0.20,-0.73,0.36,-0.36,0.31,-0.64,0.00
22.336,0.01,0.41,0.85,-0.44,-0.18,-1.01,-0.36,0.31,-0.64,0.00
22.376,0.01,0.41,0.85,0.02,0.40,-1.35,-0.36,0.31,-0.64,0.00
22.377,-0.02,0.50,0.75,0.02,0.40,-1.35,-0.36,0.31,-0.64,0.00
22.377,-0.02,0.50,0.75,0.02,0.40,-1.35,-0.26,0.54,-0.25,0.00
22.42,-0.06,0.53,0.87,0.02,0.40,-1.35,-0.26,0.54,-0.25,0.00
22.42,-0.06,0.53,0.87,-0.93,1.03,-0.66,-0.26,0.54,-0.25,0.00
22.455,-0.06,0.53,0.87,-0.93,1.03,-0.66,-0.07,0.22,0.07,0.00
22.456,-0.06,0.53,0.87,-0.31,0.73,0.03,-0.07,0.22,0.07,0.00
22.495,-0.06,0.53,0.87,-0.31,0.73,0.03,0.20,-0.01,0.38,0.00
22.496,0.07,0.61,0.87,-0.31,0.73,0.03,0.20,-0.01,0.38,0.00
22.496,0.07,0.61,0.87,0.73,1.51,-0.09,0.20,-0.01,0.38,0.00
22.534,0.07,0.61,0.87,0.67,1.35,0.05,0.20,-0.01,0.38,0.00
22.574,0.07,0.61,0.87,0.67,1.35,0.05,0.01,0.13,0.18,0.00
22.575,0.01,0.54,0.89,0.67,1.35,0.05,0.01,0.13,0.18,0.00
22.575,0.01,0.54,0.89,0.10,0.59,0.20,0.01,0.13,0.18,0.00
22.613,0.02,0.60,0.87,0.10,0.59,0.20,0.01,0.13,0.18,0.00
22.614,0.02,0.60,0.87,0.29,0.93,0.08,0.01,0.13,0.18,0.00
22.653,0.02,0.60,0.87,0.29,0.93,0.08,0.06,0.33,0.09,0.00
22.654,0.02,0.60,0.87,0.50,1.23,-0.01,0.06,0.33,0.09,0.00
22.692,0.02,0.60,0.87,0.50,1.23,-0.01,-0.00,0.43,-0.09,0.00
22.693,0.02,0.60,0.87,-1.00,0.76,-0.24,-0.00,0.43,-0.09,0.00
22.693,-0.15,0.55,0.89,-1.00,0.76,-0.24,-0.00,0.43,-0.09,0.00
22.731,-0.15,0.55,0.89,-0.89,0.76,0.42,-0.00,0.43,-0.09,0.00
22.771,-0.15,0.55,0.89,-0.89,0.76,0.42,-0.04,0.21,0.11,0.00
22.772,-0.05,0.46,1.11,-0.89,0.76,0.42,-0.04,0.21,0.11,0.00
22.773,-0.05,0.46,1.11,0.38,0.34,2.92,-0.04,0.21,0.11,0.00
22.811,-0.33,0.28,0.59,0.38,0.34,2.92,-0.04,0.21,0.11,0.00
22.812,-0.33,0.28,0.59,-0.45,-1.68,0.45,-0.04,0.21,0.11,0.00
22.85,-0.33,0.28,0.59,-0.45,-1.68,0.45,0.21,0.76,0.28,0.00
22.85,-0.33,0.28,0.59,-2.42,-2.01,-2.83,0.21,0.76,0.28,0.00
22.89,-0.33,0.28,0.59,-2.42,-2.01,-2.83,0.08,-0.17,0.73,0.00
22.89,-0.09,0.42,0.98,-2.42,-2.01,-2.83,0.08,-0.17,0.73,0.00
22.89,-0.09,0.42,0.98,-0.38,-0.47,0.57,0.08,-0.17,0.73,0.00
22.929,-0.09,0.42,0.98,-0.23,-0.69,1.41,0.08,-0.17,0.73,0.00
22.969,-0.09,0.42,0.98,-0.23,-0.69,1.41,-0.09,0.31,0.45,0.00
22.969,-0.09,0.42,0.98,-0.59,-1.38,1.20,-0.09,0.31,0.45,0.00
22.969,-0.13,0.34,0.89,-0.59,-1.38,1.20,-0.09,0.31,0.45,0.00
23.009,-0.13,0.34,0.89,-0.57,-1.27,-1.86,-0.09,0.31,0.45,0.00
23.048,-0.13,0.34,0.89,-0.57,-1.27,-1.86,-0.17,0.41,0.48,0.00
23.049,-0.09,0.38,0.74,-0.57,-1.27,-1.86,-0.17,0.41,0.48,0.00
23.049,-0.09,0.38,0.74,-0.14,-0.85,-1.31,-0.17,0.41,0.48,0.00
23.088,-0.09,0.38,0.74,-0.70,-0.67,0.18,-0.17,0.41,0.48,0.00
23.089,-0.10,0.41,0.94,-0.70,-0.67,0.18,-0.17,0.41,0.48,0.00
23.089,-0.10,0.41,0.94,-0.70,-0.67,0.18,-0.16,-0.09,0.42,0.00
23.127,-0.10,0.41,0.94,-0.09,-0.45,0.88,-0.16,-0.09,0.42,0.00
23.166,-0.10,0.41,0.94,-0.09,-0.45,0.88,-0.11,0.39,0.43,0.00
23.167,-0.06,0.52,0.85,-0.09,-0.45,0.88,-0.11,0.39,0.43,0.00
23.167,-0.06,0.52,0.85,-0.00,0.43,-0.27,-0.11,0.39,0.43,0.00
23.206,-0.06,0.52,0.85,0.30,0.95,-0.15,-0.11,0.39,0.43,0.00
23.245,-0.06,0.52,0.85,0.30,0.95,-0.15,0.01,-0.05,0.31,0.00
23.246,-0.02,0.58,1.00,0.30,0.95,-0.15,0.01,-0.05,0.31,0.00
23.246,-0.02,0.58,1.00,0.43,1.09,1.22,0.01,-0.05,0.31,0.00
23.285,0.04,0.57,0.97,0.43,1.09,1.22,0.01,-0.05,0.31,0.00
23.286,0.04,0.57,0.97,-0.06,1.13,0.56,0.01,-0.05,0.31,0.00
23.324,0.04,0.57,0.97,-0.06,1.13,0.56,0.12,-0.28,0.14,0.00
23.324,0.04,0.57,0.97,0.95,0.98,0.98,0.12,-0.28,0.14,0.00
23.364,0.04,0.57,0.97,0.95,0.98,0.98,-0.09,-0.37,-0.29,0.00
23.364,-0.06,0.41,1.01,0.95,0.98,0.98,-0.09,-0.37,-0.29,0.00
23.365,-0.06,0.41,1.01,-0.47,-0.23,1.94,-0.09,-0.37,-0.29,0.00
23.403,-0.06,0.41,1.01,0.01,-1.03,0.28,-0.09,-0.37,-0.29,0.00
23.443,-0.06,0.41,1.01,0.01,-1.03,0.28,0.02,0.12,-0.19,0.00
23.443,-0.09,0.35,0.84,0.01,-1.03,0.28,0.02,0.12,-0.19,0.00
23.443,-0.09,0.35,0.84,-0.41,-1.07,-0.28,0.02,0.12,-0.19,0.00
23.483,-0.03,0.42,0.79,-0.41,-1.07,-0.28,0.02,0.12,-0.19,0.00
23.483,-0.03,0.42,0.79,-0.94,-1.49,-1.44,0.02,0.12,-0.19,0.00
23.522,-0.03,0.42,0.79,-0.94,-1.49,-1.44,0.36,-0.04,0.09,0.00
23.522,-0.03,0.42,0.79,0.29,-0.47,-0.60,0.36,-0.04,0.09,0.00
23.562,-0.03,0.42,0.79,0.57,-0.77,0.06,0.36,-0.04,0.09,0.00
23.563,0.01,0.41,0.83,0.57,-0.77,0.06,0.36,-0.04,0.09,0.00
23.563,0.01,0.41,0.83,0.57,-0.77,0.06,0.15,-0.16,-0.12,0.00
23.601,0.01,0.41,0.83,0.27,-0.59,-0.82,0.15,-0.16,-0.12,0.00
23.641,-0.12,0.39,0.94,0.27,-0.59,-0.82,0.15,-0.16,-0.12,0.00
23.641,-0.12,0.39,0.94,-0.76,-0.65,0.48,0.15,-0.16,-0.12,0.00
23.641,-0.12,0.39,0.94,-0.76,-0.65,0.48,-0.37,0.00,-0.35,0.00
23.68,-0.12,0.39,0.94,-0.79,-0.86,1.29,-0.37,0.00,-0.35,0.00
23.681,-0.12,0.38,0.81,-0.79,-0.86,1.29,-0.37,0.00,-0.35,0.00
23.721,-0.12,0.38,0.81,-0.79,-0.86,1.29,-0.22,0.28,-0.00,0.00
23.721,-0.12,0.38,0.81,-0.59,-0.60,-1.11,-0.22,0.28,-0.00,0.00
23.759,-0.12,0.38,0.81,-0.59,-0.60,-1.11,-0.07,0.25,0.41,0.00
23.759,-0.12,0.38,0.81,-0.32,-0.01,-0.07,-0.07,0.25,0.41,0.00
23.76,-0.13,0.44,0.81,-0.32,-0.01,-0.07,-0.07,0.25,0.41,0.00
23.799,-0.13,0.44,0.81,-1.01,-0.14,-1.28,-0.07,0.25,0.41,0.00
23.84,-0.13,0.44,0.81,-1.01,-0.14,-1.28,0.00,0.18,0.68,0.00
23.84,-0.06,0.55,0.80,-1.01,-0.14,-1.28,0.00,0.18,0.68,0.00
23.84,-0.06,0.55,0.80,-0.16,0.93,-0.84,0.00,0.18,0.68,0.00
23.878,-0.06,0.55,0.80,0.04,1.34,-0.52,0.00,0.18,0.68,0.00
23.879,-0.10,0.51,0.99,0.04,1.34,-0.52,0.00,0.18,0.68,0.00
23.917,-0.10,0.51,0.99,0.04,1.34,-0.52,-0.17,0.05,0.50,0.00
23.918,-0.10,0.51,0.99,-0.57,0.60,1.13,-0.17,0.05,0.50,0.00
23.957,-0.10,0.51,0.99,-0.57,0.60,1.13,0.10,0.40,0.61,0.00
23.957,-0.10,0.51,0.99,-0.55,0.18,0.49,0.10,0.40,0.61,0.00
23.957,-0.12,0.51,0.83,-0.55,0.18,0.49,0.10,0.40,0.61,0.00
23.996,-0.12,0.51,0.83,-0.82,0.83,-1.16,0.10,0.40,0.61,0.00
24.036,-0.12,0.51,0.83,-0.82,0.83,-1.16,0.10,0.37,0.72,0.00
24.036,-0.10,0.56,0.91,-0.82,0.83,-1.16,0.10,0.37,0.72,0.00
24.036,-0.10,0.56,0.91,-0.53,1.09,0.05,0.10,0.37,0.72,0.00
24.075,-0.13,0.50,0.99,-0.53,1.09,0.05,0.10,0.37,0.72,0.00
24.076,-0.13,0.50,0.99,-0.39,0.73,0.90,0.10,0.37,0.72,0.00
24.115,-0.13,0.50,0.99,-0.39,0.73,0.90,0.12,0.46,0.67,0.00
24.115,-0.13,0.50,0.99,-0.57,0.22,1.16,0.12,0.46,0.67,0.00
24.154,-0.13,0.50,0.99,-0.57,0.22,1.16,-0.06,0.65,0.79,0.00
24.155,-0.19,0.48,0.89,-0.57,0.22,1.16,-0.06,0.65,0.79,0.00
24.155,-0.19,0.48,0.89,-1.66,0.40,-1.18,-0.06,0.65,0.79,0.00
24.194,-0.19,0.48,0.89,-0.93,0.05,0.82,-0.06,0.65,0.79,0.00
24.233,-0.19,0.48,0.89,-0.93,0.05,0.82,-0.28,0.36,0.73,0.00
24.234,-0.21,0.24,1.09,-0.93,0.05,0.82,-0.28,0.36,0.73,0.00
24.234,-0.21,0.24,1.09,-0.72,-1.53,3.47,-0.28,0.36,0.73,0.00
24.273,-0.21,0.24,1.09,-2.16,-3.09,-0.61,-0.28,0.36,0.73,0.00
24.313,-0.26,0.30,0.71,-2.16,-3.09,-0.61,-0.28,0.36,0.73,0.00
24.314,-0.26,0.30,0.71,-2.16,-3.09,-0.61,-0.03,1.03,1.28,0.00
24.314,-0.26,0.30,0.71,-1.66,-1.54,-1.70,-0.03,1.03,1.28,0.00
24.352,-0.10,0.36,0.87,-1.66,-1.54,-1.70,-0.03,1.03,1.28,0.00
24.353,-0.10,0.36,0.87,-1.66,-1.54,-1.70,0.06,0.34,1.36,0.00
24.353,-0.10,0.36,0.87,0.02,-0.55,-0.07,0.06,0.34,1.36,0.00
24.392,-0.10,0.36,0.87,-0.29,-1.01,-0.09,0.06,0.34,1.36,0.00
24.432,-0.10,0.36,0.87,-0.29,-1.01,-0.09,-0.41,0.45,1.02,0.00
24.432,-0.14,0.30,1.02,-0.29,-1.01,-0.09,-0.41,0.45,1.02,0.00
24.433,-0.14,0.30,1.02,-0.71,-1.35,2.02,-0.41,0.45,1.02,0.00
24.471,-0.14,0.30,1.02,-0.39,-1.39,0.17,-0.41,0.45,1.02,0.00
24.511,-0.05,0.42,0.80,-0.39,-1.39,0.17,-0.41,0.45,1.02,0.00
24.511,-0.05,0.42,0.80,-0.39,-1.39,0.17,-0.06,0.53,1.18,0.00
24.512,-0.05,0.42,0.80,0.10,-0.19,-0.93,-0.06,0.53,1.18,0.00
24.55,-0.04,0.47,0.91,0.10,-0.19,-0.93,-0.06,0.53,1.18,0.00
24.551,-0.04,0.47,0.91,0.67,0.28,-0.16,-0.06,0.53,1.18,0.00
24.59,-0.04,0.47,0.91,0.67,0.28,-0.16,0.01,0.16,0.90,0.00
24.59,-0.04,0.47,0.91,-0.00,0.25,0.38,0.01,0.16,0.90,0.00
24.629,-0.01,0.50,0.98,-0.00,0.25,0.38,0.01,0.16,0.90,0.00
24.63,-0.01,0.50,0.98,-0.00,0.25,0.38,0.21,0.08,0.68,0.00
24.63,-0.01,0.50,0.98,0.04,0.25,1.28,0.21,0.08,0.68,0.00
24.669,-0.01,0.50,0.98,0.55,0.40,0.61,0.21,0.08,0.68,0.00
24.708,-0.01,0.50,0.98,0.55,0.40,0.61,0.43,0.04,0.46,0.00
24.709,-0.03,0.52,0.92,0.55,0.40,0.61,0.43,0.04,0.46,0.00
24.709,-0.03,0.52,0.92,0.10,0.35,0.58,0.43,0.04,0.46,0.00
24.748,-0.05,0.51,0.82,0.10,0.35,0.58,0.43,0.04,0.46,0.00
24.749,-0.05,0.51,0.82,-0.99,-0.27,0.06,0.43,0.04,0.46,0.00
24.787,-0.05,0.51,0.82,-0.99,-0.27,0.06,0.49,-0.19,0.25,0.00
24.788,-0.05,0.51,0.82,-0.46,-0.00,-0.45,0.49,-0.19,0.25,0.00
24.827,-0.05,0.51,0.82,-0.79,-0.34,2.51,0.49,-0.19,0.25,0.00
24.827,-0.05,0.51,0.82,-0.79,-0.34,2.51,-0.22,-0.48,0.05,0.00
24.827,-0.08,0.42,1.18,-0.79,-0.34,2.51,-0.22,-0.48,0.05,0.00
24.866,-0.08,0.42,1.18,-0.91,-1.16,3.44,-0.22,-0.48,0.05,0.00
24.906,-0.08,0.42,1.18,-0.91,-1.16,3.44,0.07,0.75,0.33,0.00
24.906,-0.11,0.39,0.79,-0.91,-1.16,3.44,0.07,0.75,0.33,0.00
24.906,-0.11,0.39,0.79,-0.67,-1.28,-0.07,0.07,0.75,0.33,0.00
24.946,-0.04,0.49,0.74,-0.67,-1.28,-0.07,0.07,0.75,0.33,0.00
24.946,-0.04,0.49,0.74,-1.27,-0.58,-3.10,0.07,0.75,0.33,0.00
24.985,-0.04,0.49,0.74,-0.12,-0.26,-0.84,0.07,0.75,0.33,0.00
24.985,-0.04,0.49,0.74,-0.12,-0.26,-0.84,0.34,0.39,0.67,0.00
25.026,-0.04,0.49,0.74,-0.12,-0.26,-0.84,-0.18,0.38,0.52,0.00
25.026,-0.09,0.44,0.82,-0.12,-0.26,-0.84,-0.18,0.38,0.52,0.00
25.026,-0.09,0.44,0.82,0.10,-0.51,-0.12,-0.18,0.38,0.52,0.00
25.064,-0.09,0.44,0.82,-1.18,-0.67,-0.69,-0.18,0.38,0.52,0.00
25.104,-0.09,0.44,0.82,-1.41,-1.46,1.96,-0.18,0.38,0.52,0.00
25.104,-0.17,0.30,1.04,-1.41,-1.46,1.96,-0.18,0.38,0.52,0.00
25.104,-0.17,0.30,1.04,-1.41,-1.46,1.96,-0.51,0.41,0.67,0.00
25.144,-0.14,0.31,0.73,-1.41,-1.46,1.96,-0.51,0.41,0.67,0.00
25.144,-0.14,0.31,0.73,-1.08,-2.07,0.40,-0.51,0.41,0.67,0.00
25.183,-0.14,0.31,0.73,-1.08,-2.07,0.40,-0.10,0.92,1.28,0.00
25.184,-0.14,0.31,0.73,-1.00,-1.52,-1.57,-0.10,0.92,1.28,0.00
25.223,0.01,0.46,0.83,-1.00,-1.52,-1.57,-0.10,0.92,1.28,0.00
25.223,0.01,0.46,0.83,-1.00,-1.52,-1.57,-0.17,0.66,1.69,0.00
25.224,0.01,0.46,0.83,0.11,-0.57,-0.68,-0.17,0.66,1.69,0.00
25.263,0.01,0.46,0.83,0.50,0.34,-0.32,-0.17,0.66,1.69,0.00
25.302,-0.02,0.46,0.98,0.50,0.34,-0.32,-0.17,0.66,1.69,0.00
25.302,-0.02,0.46,0.98,-0.06,0.24,0.23,-0.17,0.66,1.69,0.00
25.302,-0.02,0.46,0.98,-0.06,0.24,0.23,-0.27,0.53,1.42,0.00
25.342,-0.02,0.46,0.98,-0.03,-0.13,2.41,-0.27,0.53,1.42,0.00
25.382,-0.02,0.46,0.98,0.18,-0.26,1.03,-0.27,0.53,1.42,0.00
25.382,-0.02,0.46,0.98,0.18,-0.26,1.03,-0.09,0.62,1.32,0.00
25.382,-0.00,0.41,1.00,0.18,-0.26,1.03,-0.09,0.62,1.32,0.00
25.422,-0.00,0.41,1.00,0.01,-0.45,0.64,-0.09,0.62,1.32,0.00
25.422,-0.05,0.39,0.93,0.01,-0.45,0.64,-0.09,0.62,1.32,0.00
25.422,-0.05,0.39,0.93,0.01,-0.45,0.64,0.00,0.96,1.25,0.00
25.46,-0.05,0.39,0.93,-0.14,-0.61,0.24,0.00,0.96,1.25,0.00
25.499,-0.05,0.39,0.93,-0.14,-0.61,0.24,0.06,0.75,1.23,0.00
25.5,0.00,0.40,0.90,-0.14,-0.61,0.24,0.06,0.75,1.23,0.00
25.5,0.00,0.40,0.90,0.63,-0.21,-0.32,0.06,0.75,1.23,0.00
25.539,0.00,0.40,0.90,0.20,-0.83,0.74,0.06,0.75,1.23,0.00
25.578,0.00,0.40,0.90,0.20,-0.83,0.74,-0.21,0.70,0.95,0.00
25.578,-0.17,0.24,0.93,0.20,-0.83,0.74,-0.21,0.70,0.95,0.00
25.579,-0.17,0.24,0.93,-1.02,-1.89,0.38,-0.21,0.70,0.95,0.00
25.618,-0.13,0.28,0.91,-1.02,-1.89,0.38,-0.21,0.70,0.95,0.00
25.618,-0.13,0.28,0.91,-0.97,-1.50,-0.53,-0.21,0.70,0.95,0.00
25.657,-0.13,0.28,0.91,-0.97,-1.50,-0.53,-0.43,0.92,1.29,0.00
25.657,-0.13,0.28,0.91,-0.26,-1.25,0.27,-0.43,0.92,1.29,0.00
25.697,-0.13,0.28,0.91,-0.26,-1.25,0.27,-0.27,0.86,1.46,0.00
25.697,-0.17,0.25,0.88,-0.26,-1.25,0.27,-0.27,0.86,1.46,0.00
25.697,-0.17,0.25,0.88,-0.85,-1.60,-0.22,-0.27,0.86,1.46,0.00
25.736,-0.17,0.25,0.88,-0.63,-1.28,-0.19,-0.27,0.86,1.46,0.00
25.776,-0.17,0.25,0.88,-0.63,-1.28,-0.19,-0.14,0.65,1.63,0.00
25.776,-0.10,0.35,0.96,-0.63,-1.28,-0.19,-0.14,0.65,1.63,0.00
25.776,-0.10,0.35,0.96,-0.05,-0.57,0.53,-0.14,0.65,1.63,0.00
25.815,-0.18,0.35,0.96,-0.05,-0.57,0.53,-0.14,0.65,1.63,0.00
25.816,-0.18,0.35,0.96,-0.38,-0.33,0.84,-0.14,0.65,1.63,0.00
25.855,-0.18,0.35,0.96,-0.38,-0.33,0.84,-0.15,0.71,1.32,0.00
25.855,-0.18,0.35,0.96,-0.93,-0.44,0.42,-0.15,0.71,1.32,0.00
25.894,-0.18,0.35,0.96,-0.93,-0.44,0.42,-0.18,0.47,1.09,0.00
25.895,-0.18,0.35,0.96,-0.35,-0.16,0.89,-0.18,0.47,1.09,0.00
25.895,-0.15,0.37,1.02,-0.35,-0.16,0.89,-0.18,0.47,1.09,0.00
25.934,-0.15,0.37,1.02,-0.63,-0.36,1.27,-0.18,0.47,1.09,0.00
25.974,-0.15,0.37,1.02,-0.63,-0.36,1.27,-0.13,0.59,0.87,0.00
25.974,-0.20,0.32,0.94,-0.63,-0.36,1.27,-0.13,0.59,0.87,0.00
25.974,-0.20,0.32,0.94,-0.84,-0.80,0.54,-0.13,0.59,0.87,0.00
26.013,-0.12,0.40,0.81,-0.84,-0.80,0.54,-0.13,0.59,0.87,0.00
26.013,-0.12,0.40,0.81,-0.32,-0.47,-0.87,-0.13,0.59,0.87,0.00
26.052,-0.12,0.40,0.81,-0.32,-0.47,-0.87,-0.02,0.58,0.89,0.00
26.053,-0.12,0.40,0.81,0.17,0.13,-0.91,-0.02,0.58,0.89,0.00
26.093,-0.12,0.40,0.81,0.17,0.13,-0.91,-0.13,0.26,0.66,0.00
26.093,-0.12,0.39,0.92,0.17,0.13,-0.91,-0.13,0.26,0.66,0.00
26.094,-0.12,0.39,0.92,0.20,-0.01,-0.08,-0.13,0.26,0.66,0.00
26.132,-0.12,0.39,0.92,-0.12,0.02,0.37,-0.13,0.26,0.66,0.00
26.171,-0.12,0.39,0.92,-0.12,0.02,0.37,-0.02,0.20,0.57,0.00
26.172,-0.09,0.41,0.89,-0.12,0.02,0.37,-0.02,0.20,0.57,0.00
26.172,-0.09,0.41,0.89,0.28,-0.01,-0.03,-0.02,0.20,0.57,0.00
26.211,-0.06,0.46,0.94,0.28,-0.01,-0.03,-0.02,0.20,0.57,0.00
26.211,-0.06,0.46,0.94,0.30,0.68,-0.41,-0.02,0.20,0.57,0.00
26.25,-0.06,0.46,0.94,0.30,0.68,-0.41,0.02,-0.06,0.38,0.00
26.251,-0.06,0.46,0.94,0.39,0.52,0.45,0.02,-0.06,0.38,0.00
26.29,-0.06,0.46,0.94,0.39,0.52,0.45,0.14,-0.15,0.09,0.00
26.291,-0.06,0.46,0.94,0.16,0.36,1.38,0.14,-0.15,0.09,0.00
26.291,-0.08,0.46,0.93,0.16,0.36,1.38,0.14,-0.15,0.09,0.00
26.329,-0.08,0.46,0.93,0.11,0.56,-0.42,0.14,-0.15,0.09,0.00
26.369,-0.02,0.50,0.93,0.11,0.56,-0.42,0.14,-0.15,0.09,0.00
26.369,-0.02,0.50,0.93,0.11,0.56,-0.42,-0.02,-0.20,-0.21,0.00
26.369,-0.02,0.50,0.93,0.78,1.17,-0.26,-0.02,-0.20,-0.21,0.00
26.408,-0.15,0.27,1.05,0.78,1.17,-0.26,-0.02,-0.20,-0.21,0.00
26.409,-0.15,0.27,1.05,0.38,0.37,1.38,-0.02,-0.20,-0.21,0.00
26.448,-0.15,0.27,1.05,0.38,0.37,1.38,-0.27,-0.26,-0.63,0.00
26.449,-0.15,0.27,1.05,-0.58,-1.22,1.31,-0.27,-0.26,-0.63,0.00
26.488,-0.15,0.27,1.05,-0.58,-1.22,1.31,0.16,-0.12,-0.20,0.00
26.488,-0.02,0.34,0.87,-0.58,-1.22,1.31,0.16,-0.12,-0.20,0.00
26.488,-0.02,0.34,0.87,-0.03,-0.84,0.15,0.16,-0.12,-0.20,0.00
26.528,-0.02,0.34,0.87,0.93,-0.49,-0.71,0.16,-0.12,-0.20,0.00
26.568,-0.02,0.34,0.87,1.07,-0.52,-1.57,0.16,-0.12,-0.20,0.00
26.568,-0.02,0.34,0.87,1.07,-0.52,-1.57,0.19,-0.17,-0.23,0.00
26.568,0.04,0.37,0.78,1.07,-0.52,-1.57,0.19,-0.17,-0.23,0.00
26.606,0.04,0.37,0.78,1.18,-0.13,-0.71,0.19,-0.17,-0.23,0.00
26.646,0.04,0.37,0.78,1.18,-0.13,-0.71,-0.17,-0.34,-0.34,0.00
26.646,-0.01,0.38,0.94,1.18,-0.13,-0.71,-0.17,-0.34,-0.34,0.00
26.646,-0.01,0.38,0.94,0.62,-0.10,0.31,-0.17,-0.34,-0.34,0.00
26.686,-0.01,0.38,0.94,0.62,-0.10,0.31,-0.33,-0.05,-0.12,0.00
26.686,-0.06,0.39,0.86,0.62,-0.10,0.31,-0.33,-0.05,-0.12,0.00
26.686,-0.06,0.39,0.86,-0.43,-0.18,-0.65,-0.33,-0.05,-0.12,0.00
26.726,-0.06,0.39,0.86,0.22,0.32,-0.54,-0.33,-0.05,-0.12,0.00
26.765,-0.06,0.39,0.86,-0.20,0.63,-0.97,-0.33,-0.05,-0.12,0.00
26.765,-0.09,0.42,0.83,-0.20,0.63,-0.97,-0.33,-0.05,-0.12,0.00
26.765,-0.09,0.42,0.83,-0.20,0.63,-0.97,-0.23,-0.11,0.24,0.00
26.804,-0.09,0.42,0.83,-0.69,0.51,-0.76,-0.23,-0.11,0.24,0.00
26.844,-0.05,0.50,0.87,-0.69,0.51,-0.76,-0.23,-0.11,0.24,0.00
26.844,-0.05,0.50,0.87,-0.69,0.51,-0.76,-0.05,-0.27,0.53,0.00
26.844,-0.05,0.50,0.87,-0.48,1.25,-0.63,-0.05,-0.27,0.53,0.00
26.883,-0.02,0.48,0.90,-0.48,1.25,-0.63,-0.05,-0.27,0.53,0.00
26.884,-0.02,0.48,0.90,0.45,1.57,0.86,-0.05,-0.27,0.53,0.00
26.923,-0.02,0.48,0.90,0.45,1.57,0.86,0.06,-0.18,0.45,0.00
26.923,-0.02,0.48,0.90,-0.32,0.87,-0.49,0.06,-0.18,0.45,0.00
26.962,-0.02,0.48,0.90,-0.32,0.87,-0.49,0.03,0.22,0.30,0.00
26.963,-0.02,0.48,0.90,-0.31,1.01,-1.71,0.03,0.22,0.30,0.00
26.963,-0.05,0.50,0.79,-0.31,1.01,-1.71,0.03,0.22,0.30,0.00
27.002,-0.05,0.50,0.79,-0.40,1.51,-0.81,0.03,0.22,0.30,0.00
27.042,-0.05,0.50,0.79,-0.40,1.51,-0.81,-0.04,0.09,0.24,0.00
27.042,-0.12,0.53,0.89,-0.40,1.51,-0.81,-0.04,0.09,0.24,0.00
27.042,-0.12,0.53,0.89,-1.03,1.51,-0.45,-0.04,0.09,0.24,0.00
27.081,-0.09,0.50,0.99,-1.03,1.51,-0.45,-0.04,0.09,0.24,0.00
27.081,-0.09,0.50,0.99,-1.22,1.51,0.72,-0.04,0.09,0.24,0.00
27.121,-0.09,0.50,0.99,-1.22,1.51,0.72,-0.09,0.19,0.34,0.00
27.121,-0.09,0.50,0.99,-0.57,1.12,0.63,-0.09,0.19,0.34,0.00
27.16,-0.09,0.50,0.99,-0.57,1.12,0.63,-0.19,0.51,0.45,0.00
27.16,-0.16,0.38,1.00,-0.57,1.12,0.63,-0.19,0.51,0.45,0.00
27.161,-0.16,0.38,1.00,-0.68,0.53,1.49,-0.19,0.51,0.45,0.00
27.2,-0.16,0.38,1.00,-1.30,-0.26,-0.06,-0.19,0.51,0.45,0.00
27.239,-0.16,0.32,0.92,-1.30,-0.26,-0.06,-0.19,0.51,0.45,0.00
27.24,-0.16,0.32,0.92,-1.30,-0.26,-0.06,-0.26,0.82,0.82,0.00
27.24,-0.16,0.32,0.92,-0.89,-0.17,-0.51,-0.26,0.82,0.82,0.00
27.279,-0.16,0.19,1.09,-0.89,-0.17,-0.51,-0.26,0.82,0.82,0.00
27.279,-0.16,0.19,1.09,-0.65,-0.77,1.20,-0.26,0.82,0.82,0.00
27.319,-0.16,0.19,1.09,-0.65,-0.77,1.20,-0.18,0.42,1.07,0.00
27.319,-0.16,0.19,1.09,-0.85,-1.68,1.51,-0.18,0.42,1.07,0.00
27.358,-0.16,0.19,1.09,-0.61,-1.71,1.32,-0.18,0.42,1.07,0.00
27.358,-0.09,0.19,1.08,-0.61,-1.71,1.32,-0.18,0.42,1.07,0.00
27.358,-0.09,0.19,1.08,-0.61,-1.71,1.32,0.12,0.38,1.36,0.00
27.397,-0.09,0.19,1.08,0.20,-1.57,1.56,0.12,0.38,1.36,0.00
27.437,-0.09,0.19,1.08,0.20,-1.57,1.56,0.19,0.56,1.23,0.00
27.437,-0.08,0.18,0.91,0.20,-1.57,1.56,0.19,0.56,1.23,0.00
27.438,-0.08,0.18,0.91,-0.09,-1.92,-0.37,0.19,0.56,1.23,0.00
27.477,-0.03,0.22,0.89,-0.09,-1.92,-0.37,0.19,0.56,1.23,0.00
27.477,-0.03,0.22,0.89,0.23,-1.66,0.33,0.19,0.56,1.23,0.00
27.517,-0.03,0.22,0.89,0.23,-1.66,0.33,0.06,0.39,1.05,0.00
27.517,-0.03,0.22,0.89,0.53,-1.51,-0.38,0.06,0.39,1.05,0.00
27.556,-0.03,0.22,0.89,0.53,-1.51,-0.38,-0.13,0.39,0.80,0.00
27.557,-0.03,0.22,0.89,0.18,-1.27,-1.33,-0.13,0.39,0.80,0.00
27.557,-0.07,0.27,0.87,0.18,-1.27,-1.33,-0.13,0.39,0.80,0.00
27.595,-0.07,0.27,0.87,0.14,-0.80,-0.09,-0.13,0.39,0.80,0.00
27.635,-0.07,0.27,0.87,0.14,-0.80,-0.09,-0.09,0.30,0.73,0.00
27.636,-0.07,0.33,0.87,0.14,-0.80,-0.09,-0.09,0.30,0.73,0.00
27.636,-0.07,0.33,0.87,0.01,-0.57,-0.25,-0.09,0.30,0.73,0.00
27.675,-0.07,0.33,0.87,0.46,0.00,-1.09,-0.09,0.30,0.73,0.00
27.715,-0.07,0.33,0.87,0.46,0.00,-1.09,-0.01,0.18,0.61,0.00
27.715,0.00,0.43,0.85,0.46,0.00,-1.09,-0.01,0.18,0.61,0.00
27.716,0.00,0.43,0.85,0.72,0.57,-0.70,-0.01,0.18,0.61,0.00
27.753,0.00,0.43,0.85,0.72,0.57,-0.70,-0.03,-0.08,0.23,0.00
27.754,0.01,0.43,1.01,0.72,0.57,-0.70,-0.03,-0.08,0.23,0.00
27.754,0.01,0.43,1.01,0.84,1.08,1.14,-0.03,-0.08,0.23,0.00
27.793,0.01,0.43,1.01,0.65,0.39,0.73,-0.03,-0.08,0.23,0.00
27.833,0.01,0.43,1.01,0.27,-0.29,0.68,-0.03,-0.08,0.23,0.00
27.833,0.01,0.43,1.01,0.27,-0.29,0.68,0.09,-0.12,-0.11,0.00
27.833,-0.06,0.35,1.00,0.27,-0.29,0.68,0.09,-0.12,-0.11,0.00
27.872,-0.06,0.35,1.00,-0.43,-0.35,1.01,0.09,-0.12,-0.11,0.00
27.912,-0.06,0.35,1.00,-0.43,-0.35,1.01,0.21,-0.20,-0.11,0.00
27.912,0.05,0.44,0.82,-0.43,-0.35,1.01,0.21,-0.20,-0.11,0.00
27.913,0.05,0.44,0.82,0.76,0.47,-1.25,0.21,-0.20,-0.11,0.00
27.951,0.05,0.44,0.82,2.25,1.00,2.17,0.21,-0.20,-0.11,0.00
27.952,0.07,0.28,1.23,2.25,1.00,2.17,0.21,-0.20,-0.11,0.00
27.991,0.07,0.28,1.23,2.25,1.00,2.17,-0.26,-0.74,-0.75,0.00
27.992,0.07,0.28,1.23,0.67,-1.55,3.18,-0.26,-0.74,-0.75,0.00
28.032,0.07,0.28,1.23,0.12,-1.82,0.33,-0.26,-0.74,-0.75,0.00
28.033,0.01,0.22,0.95,0.12,-1.82,0.33,-0.26,-0.74,-0.75,0.00
28.033,0.01,0.22,0.95,0.12,-1.82,0.33,0.08,0.08,-0.75,0.00
28.07,0.01,0.22,0.95,1.23,-1.26,0.11,0.08,0.08,-0.75,0.00
28.11,0.01,0.22,0.95,1.23,-1.26,0.11,0.45,0.04,-0.51,0.00
28.11,0.01,0.29,0.68,1.23,-1.26,0.11,0.45,0.04,-0.51,0.00
28.111,0.01,0.29,0.68,0.82,-1.19,-2.02,0.45,0.04,-0.51,0.00
28.149,0.01,0.29,0.68,0.17,-0.42,-3.64,0.45,0.04,-0.51,0.00
28.15,-0.02,0.36,0.74,0.17,-0.42,-3.64,0.45,0.04,-0.51,0.00
28.189,-0.02,0.36,0.74,0.17,-0.42,-3.64,-0.11,-0.07,-0.45,0.00
28.189,-0.02,0.36,0.74,0.41,-0.16,-1.23,-0.11,-0.07,-0.45,0.00
28.228,-0.02,0.36,0.74,0.41,-0.16,-1.23,-0.35,-0.46,-0.54,0.00
28.228,-0.02,0.36,0.74,0.16,-0.58,1.74,-0.35,-0.46,-0.54,0.00
28.229,-0.08,0.29,1.05,0.16,-0.58,1.74,-0.35,-0.46,-0.54,0.00
28.267,-0.08,0.29,1.05,-0.63,-0.81,0.67,-0.35,-0.46,-0.54,0.00
28.307,-0.08,0.29,1.05,-0.63,-0.81,0.67,-0.03,0.21,-0.13,0.00
28.308,-0.05,0.40,0.77,-0.63,-0.81,0.67,-0.03,0.21,-0.13,0.00
28.308,-0.05,0.40,0.77,0.12,0.24,-1.51,-0.03,0.21,-0.13,0.00
28.347,-0.06,0.46,0.84,0.12,0.24,-1.51,-0.03,0.21,-0.13,0.00
28.347,-0.06,0.46,0.84,0.25,1.07,-1.42,-0.03,0.21,-0.13,0.00
28.386,-0.06,0.46,0.84,0.04,0.92,-0.69,-0.03,0.21,-0.13,0.00
28.387,-0.06,0.46,0.84,0.04,0.92,-0.69,0.00,-0.03,-0.02,0.00
28.426,-0.07,0.50,0.96,0.04,0.92,-0.69,0.00,-0.03,-0.02,0.00
28.427,-0.07,0.50,0.96,-0.14,1.39,-0.01,0.00,-0.03,-0.02,0.00
28.427,-0.07,0.50,0.96,-0.14,1.39,-0.01,0.08,-0.07,-0.15,0.00
28.465,-0.07,0.50,0.96,0.01,1.21,0.67,0.08,-0.07,-0.15,0.00
28.505,-0.07,0.50,0.96,-0.08,0.64,2.04,0.08,-0.07,-0.15,0.00
28.506,-0.09,0.44,1.08,-0.08,0.64,2.04,0.08,-0.07,-0.15,0.00
28.506,-0.09,0.44,1.08,-0.08,0.64,2.04,0.04,0.07,-0.27,0.00
28.544,-0.06,0.46,0.90,-0.08,0.64,2.04,0.04,0.07,-0.27,0.00
28.545,-0.06,0.46,0.90,-0.01,0.39,0.27,0.04,0.07,-0.27,0.00
28.584,-0.06,0.46,0.90,-0.01,0.39,0.27,0.09,0.40,-0.20,0.00
28.585,-0.06,0.46,0.90,0.47,0.80,-0.17,0.09,0.40,-0.20,0.00
28.624,-0.06,0.46,0.90,0.47,0.80,-0.17,-0.07,0.16,-0.34,0.00
28.624,-0.09,0.32,0.97,0.47,0.80,-0.17,-0.07,0.16,-0.34,0.00
28.625,-0.09,0.32,0.97,0.72,0.31,0.87,-0.07,0.16,-0.34,0.00
28.663,-0.09,0.32,0.97,0.11,-1.02,0.29,-0.07,0.16,-0.34,0.00
28.704,-0.09,0.32,0.97,0.11,-1.02,0.29,-0.07,0.15,-0.18,0.00
28.704,-0.13,0.22,0.94,0.11,-1.02,0.29,-0.07,0.15,-0.18,0.00
28.705,-0.13,0.22,0.94,0.23,-1.49,0.29,-0.07,0.15,-0.18,0.00
28.743,-0.13,0.22,0.94,-0.30,-1.17,-0.12,-0.07,0.15,-0.18,0.00
28.743,-0.07,0.23,1.02,-0.30,-1.17,-0.12,-0.07,0.15,-0.18,0.00
28.782,-0.07,0.23,1.02,-0.30,-1.17,-0.12,0.02,-0.20,0.08,0.00
28.783,-0.07,0.23,1.02,0.39,-1.27,1.01,0.02,-0.20,0.08,0.00
28.822,-0.07,0.23,1.02,0.39,-1.27,1.01,0.01,-0.26,-0.02,0.00
28.823,-0.07,0.23,1.02,0.71,-1.27,1.61,0.01,-0.26,-0.02,0.00
28.824,-0.11,0.19,1.03,0.71,-1.27,1.61,0.01,-0.26,-0.02,0.00
28.861,-0.11,0.19,1.03,-0.27,-1.83,0.69,0.01,-0.26,-0.02,0.00
28.901,-0.11,0.19,1.03,-0.27,-1.83,0.69,-0.03,0.34,0.04,0.00
28.902,-0.11,0.19,1.03,-0.42,-1.16,-2.39,-0.03,0.34,0.04,0.00
28.902,-0.14,0.30,0.70,-0.42,-1.16,-2.39,-0.03,0.34,0.04,0.00
28.94,-0.14,0.30,0.70,0.30,0.56,-1.66,-0.03,0.34,0.04,0.00
28.979,-0.14,0.30,0.70,0.30,0.56,-1.66,-0.17,-0.23,-0.12,0.00
28.98,-0.14,0.30,0.70,0.25,0.35,0.09,-0.17,-0.23,-0.12,0.00
28.981,-0.09,0.38,0.93,0.25,0.35,0.09,-0.17,-0.23,-0.12,0.00
29.019,-0.09,0.38,0.93,0.25,0.35,0.09,-0.26,-0.14,-0.32,0.00
29.02,-0.12,0.36,1.02,0.25,0.35,0.09,-0.26,-0.14,-0.32,0.00
29.02,-0.12,0.36,1.02,-0.56,-0.14,-0.06,-0.26,-0.14,-0.32,0.00
29.058,-0.12,0.36,1.02,0.10,0.42,1.18,-0.26,-0.14,-0.32,0.00
29.098,-0.12,0.36,1.02,0.48,0.54,-0.36,-0.26,-0.14,-0.32,0.00
29.099,-0.10,0.39,0.79,0.48,0.54,-0.36,-0.26,-0.14,-0.32,0.00
29.1,-0.10,0.39,0.79,0.48,0.54,-0.36,0.02,0.18,-0.21,0.00
29.141,-0.10,0.39,0.79,0.07,0.65,-2.74,0.02,0.18,-0.21,0.00
29.177,-0.10,0.39,0.79,0.07,0.65,-2.74,0.03,-0.09,-0.23,0.00
29.178,-0.13,0.44,0.86,0.07,0.65,-2.74,0.03,-0.09,-0.23,0.00
29.178,-0.13,0.44,0.86,-0.04,1.09,-0.75,0.03,-0.09,-0.23,0.00
29.217,-0.12,0.45,0.84,-0.04,1.09,-0.75,0.03,-0.09,-0.23,0.00
29.218,-0.12,0.45,0.84,-0.16,0.58,0.08,0.03,-0.09,-0.23,0.00
29.256,-0.12,0.45,0.84,-0.03,1.17,-1.08,0.03,-0.09,-0.23,0.00
29.257,-0.12,0.45,0.84,-0.03,1.17,-1.08,0.14,-0.19,-0.28,0.00
29.296,-0.10,0.50,0.92,-0.03,1.17,-1.08,0.14,-0.19,-0.28,0.00
29.297,-0.10,0.50,0.92,0.21,1.45,-0.14,0.14,-0.19,-0.28,0.00
29.297,-0.10,0.50,0.92,0.21,1.45,-0.14,0.03,-0.20,-0.36,0.00
29.337,-0.10,0.50,0.92,0.01,1.56,0.17,0.03,-0.20,-0.36,0.00
29.375,-0.13,0.49,1.04,0.01,1.56,0.17,0.03,-0.20,-0.36,0.00
29.376,-0.13,0.49,1.04,0.01,1.56,0.17,0.07,-0.18,-0.50,0.00
29.376,-0.13,0.49,1.04,0.15,1.27,1.32,0.07,-0.18,-0.50,0.00
29.414,-0.12,0.38,1.08,0.15,1.27,1.32,0.07,-0.18,-0.50,0.00
29.415,-0.12,0.38,1.08,-1.31,1.65,0.07,0.07,-0.18,-0.50,0.00
29.454,-0.12,0.38,1.08,0.07,0.04,1.78,0.07,-0.18,-0.50,0.00
29.454,-0.12,0.38,1.08,0.07,0.04,1.78,0.22,-0.12,-0.55,0.00
29.494,-0.23,0.05,1.12,0.07,0.04,1.78,0.22,-0.12,-0.55,0.00
29.495,-0.23,0.05,1.12,0.07,0.04,1.78,0.29,-0.73,-0.53,0.00
29.495,-0.23,0.05,1.12,-1.02,-2.72,4.58,0.29,-0.73,-0.53,0.00
29.533,-0.23,0.05,1.12,-1.70,-3.35,-0.41,0.29,-0.73,-0.53,0.00
29.573,-0.33,0.15,0.92,-1.70,-3.35,-0.41,0.29,-0.73,-0.53,0.00
29.573,-0.33,0.15,0.92,-1.70,-3.35,-0.41,0.16,0.26,0.26,0.00
29.574,-0.33,0.15,0.92,-2.74,-2.21,-0.50,0.16,0.26,0.26,0.00
29.613,-0.12,0.27,0.85,-2.74,-2.21,-0.50,0.16,0.26,0.26,0.00
29.613,-0.12,0.27,0.85,-0.70,-2.00,1.61,0.16,0.26,0.26,0.00
29.651,-0.12,0.27,0.85,-0.70,-2.00,1.61,0.38,-0.04,0.91,0.00
29.652,-0.12,0.27,0.85,-0.35,-1.17,-0.89,0.38,-0.04,0.91,0.00
29.691,-0.12,0.27,0.85,-0.35,-1.17,-0.89,0.01,0.10,0.85,0.00
29.692,-0.16,0.37,0.90,-0.35,-1.17,-0.89,0.01,0.10,0.85,0.00
29.692,-0.16,0.37,0.90,-1.15,-0.05,-2.08,0.01,0.10,0.85,0.00
29.731,-0.16,0.37,0.90,-0.73,-0.29,1.15,0.01,0.10,0.85,0.00
29.77,-0.24,0.22,1.00,-0.73,-0.29,1.15,0.01,0.10,0.85,0.00
29.771,-0.24,0.22,1.00,-0.73,-0.29,1.15,-0.09,0.02,0.79,0.00
29.771,-0.24,0.22,1.00,-1.81,-1.62,1.64,-0.09,0.02,0.79,0.00
29.81,-0.16,0.34,0.82,-1.81,-1.62,1.64,-0.09,0.02,0.79,0.00
29.811,-0.16,0.34,0.82,-1.71,-1.54,-1.39,-0.09,0.02,0.79,0.00
29.849,-0.16,0.34,0.82,-1.71,-1.54,-1.39,-0.06,0.66,1.33,0.00
29.85,-0.16,0.34,0.82,-0.91,-0.36,-0.96,-0.06,0.66,1.33,0.00
29.889,-0.16,0.34,0.82,-1.06,-0.40,-0.40,-0.06,0.66,1.33,0.00
29.89,-0.14,0.34,0.92,-1.06,-0.40,-0.40,-0.06,0.66,1.33,0.00
29.89,-0.14,0.34,0.92,-1.06,-0.40,-0.40,-0.09,0.32,1.53,0.00
29.929,-0.14,0.34,0.92,-0.92,-0.47,0.20,-0.09,0.32,1.53,0.00
29.969,-0.08,0.31,0.91,-0.92,-0.47,0.20,-0.09,0.32,1.53,0.00
29.969,-0.08,0.31,0.91,-0.92,-0.47,0.20,-0.21,0.57,1.73,0.00
29.97,-0.08,0.31,0.91,-0.32,-0.45,0.20,-0.21,0.57,1.73,0.00
30.008,-0.08,0.31,0.91,-0.54,-0.85,-0.54,-0.21,0.57,1.73,0.00
30.047,-0.08,0.31,0.91,-0.54,-0.85,-0.54,-0.08,0.66,1.92,0.00
30.048,-0.02,0.29,0.90,-0.54,-0.85,-0.54,-0.08,0.66,1.92,0.00
30.048,-0.02,0.29,0.90,0.13,-0.84,-0.17,-0.08,0.66,1.92,0.00
30.087,-0.02,0.29,0.90,0.13,-0.84,-0.17,0.05,0.73,1.94,0.00
30.087,-0.10,0.31,0.90,0.13,-0.84,-0.17,0.05,0.73,1.94,0.00
30.088,-0.10,0.31,0.90,-0.02,-0.47,-0.89,0.05,0.73,1.94,0.00
30.127,-0.10,0.31,0.90,-1.07,-0.71,0.14,0.05,0.73,1.94,0.00
30.166,0.04,0.30,1.03,-1.07,-0.71,0.14,0.05,0.73,1.94,0.00
30.166,0.04,0.30,1.03,-1.07,-0.71,0.14,0.18,0.47,1.94,0.00
30.166,0.04,0.30,1.03,0.29,-0.92,1.50,0.18,0.47,1.94,0.00
30.206,0.04,0.30,1.03,0.79,-0.80,0.57,0.18,0.47,1.94,0.00
30.245,0.04,0.30,1.03,0.79,-0.80,0.57,0.13,0.77,1.52,0.00
30.245,-0.12,0.27,0.88,0.79,-0.80,0.57,0.13,0.77,1.52,0.00
30.245,-0.12,0.27,0.88,-0.98,-1.16,-0.39,0.13,0.77,1.52,0.00
30.285,-0.11,0.27,1.18,-0.98,-1.16,-0.39,0.13,0.77,1.52,0.00
30.285,-0.11,0.27,1.18,-1.60,-1.12,1.17,0.13,0.77,1.52,0.00
30.324,-0.11,0.27,1.18,-1.60,-1.12,1.17,-0.26,0.53,1.55,0.00
30.324,-0.11,0.27,1.18,-0.60,-1.12,2.99,-0.26,0.53,1.55,0.00
30.363,-0.15,0.30,0.82,-0.60,-1.12,2.99,-0.26,0.53,1.55,0.00
30.364,-0.15,0.30,0.82,-0.60,-1.12,2.99,0.06,1.02,1.53,0.00
30.364,-0.15,0.30,0.82,-1.09,-1.35,-1.85,0.06,1.02,1.53,0.00
30.403,-0.15,0.30,0.82,-0.96,-0.21,0.14,0.06,1.02,1.53,0.00
30.445,-0.15,0.30,0.82,-1.03,-0.60,0.77,0.06,1.02,1.53,0.00
30.446,-0.15,0.30,1.02,-1.03,-0.60,0.77,0.06,1.02,1.53,0.00
30.446,-0.15,0.30,1.02,-1.03,-0.60,0.77,-0.29,0.57,1.44,0.00
30.482,-0.12,0.25,1.02,-1.03,-0.60,0.77,-0.29,0.57,1.44,0.00
30.483,-0.12,0.25,1.02,-0.64,-0.59,1.85,-0.29,0.57,1.44,0.00
30.522,-0.12,0.25,1.02,-0.64,-0.59,1.85,-0.42,0.55,1.30,0.00
30.523,-0.12,0.25,1.02,-0.63,-0.93,0.62,-0.42,0.55,1.30,0.00
30.561,-0.12,0.25,1.02,-0.63,-0.93,0.62,-0.37,0.76,1.28,0.00
30.562,-0.11,0.29,0.83,-0.63,-0.93,0.62,-0.37,0.76,1.28,0.00
30.562,-0.11,0.29,0.83,-0.40,-0.60,-0.86,-0.37,0.76,1.28,0.00
30.601,-0.11,0.29,0.83,-0.24,-0.23,-1.10,-0.37,0.76,1.28,0.00
30.641,-0.11,0.29,0.83,-0.28,0.16,-1.43,-0.37,0.76,1.28,0.00
30.641,-0.11,0.29,0.83,-0.28,0.16,-1.43,-0.22,0.41,1.25,0.00
30.642,-0.09,0.35,0.81,-0.28,0.16,-1.43,-0.22,0.41,1.25,0.00
30.68,-0.09,0.35,0.81,0.26,0.93,-0.59,-0.22,0.41,1.25,0.00
30.681,-0.04,0.44,0.97,0.26,0.93,-0.59,-0.22,0.41,1.25,0.00
30.719,-0.04,0.44,0.97,0.26,0.93,-0.59,-0.24,0.12,1.05,0.00
30.72,-0.04,0.44,0.97,0.25,1.28,0.45,-0.24,0.12,1.05,0.00
30.759,-0.04,0.44,0.97,0.25,1.28,0.45,-0.29,0.34,0.69,0.00
30.76,-0.12,0.42,0.98,0.25,1.28,0.45,-0.29,0.34,0.69,0.00
30.76,-0.12,0.42,0.98,-0.64,1.19,-0.13,-0.29,0.34,0.69,0.00
30.8,-0.12,0.42,0.98,-0.50,1.08,0.69,-0.29,0.34,0.69,0.00
30.844,-0.12,0.42,0.98,-0.50,1.08,0.69,-0.07,0.05,0.58,0.00
30.845,-0.15,0.41,1.04,-0.50,1.08,0.69,-0.07,0.05,0.58,0.00
30.845,-0.15,0.41,1.04,-0.88,1.11,1.14,-0.07,0.05,0.58,0.00
30.878,-0.15,0.41,1.04,-0.87,1.02,0.39,-0.07,0.05,0.58,0.00
30.878,-0.14,0.32,1.11,-0.87,1.02,0.39,-0.07,0.05,0.58,0.00
30.917,-0.14,0.32,1.11,-0.87,1.02,0.39,-0.27,-0.03,0.40,0.00
30.918,-0.14,0.32,1.11,-0.97,0.30,1.57,-0.27,-0.03,0.40,0.00
30.957,-0.14,0.32,1.11,-0.97,0.30,1.57,0.11,-0.28,0.57,0.00
30.957,-0.14,0.32,1.11,-1.38,-0.99,3.49,0.11,-0.28,0.57,0.00
30.958,-0.13,0.18,1.17,-1.38,-0.99,3.49,0.11,-0.28,0.57,0.00
30.996,-0.13,0.18,1.17,-0.72,-1.26,1.16,0.11,-0.28,0.57,0.00
31.036,-0.13,0.18,1.17,-0.72,-1.26,1.16,0.47,0.38,0.96,0.00
31.037,-0.13,0.18,1.17,0.74,-0.73,-0.01,0.47,0.38,0.96,0.00
31.038,0.07,0.27,0.94,0.74,-0.73,-0.01,0.47,0.38,0.96,0.00
31.076,0.07,0.27,0.94,1.35,-0.52,-0.29,0.47,0.38,0.96,0.00
31.115,0.03,0.25,0.76,1.35,-0.52,-0.29,0.47,0.38,0.96,0.00
31.116,0.03,0.25,0.76,1.35,-0.52,-0.29,0.59,0.19,0.59,0.00
31.116,0.03,0.25,0.76,0.62,-1.10,-1.65,0.59,0.19,0.59,0.00
31.154,-0.11,0.20,0.81,0.62,-1.10,-1.65,0.59,0.19,0.59,0.00
31.155,-0.11,0.20,0.81,0.62,-1.10,-1.65,0.08,0.35,0.21,0.00
31.155,-0.11,0.20,0.81,-0.38,-1.58,-1.68,0.08,0.35,0.21,0.00
31.194,-0.11,0.20,0.81,-0.67,-1.59,-0.95,0.08,0.35,0.21,0.00
31.234,-0.11,0.20,0.81,-0.14,-1.01,-1.34,0.08,0.35,0.21,0.00
31.235,-0.11,0.20,0.81,-0.14,-1.01,-1.34,-0.07,0.41,0.42,0.00
31.236,-0.10,0.26,0.78,-0.14,-1.01,-1.34,-0.07,0.41,0.42,0.00
31.273,-0.10,0.26,0.78,-0.65,-0.69,-1.61,-0.07,0.41,0.42,0.00
31.313,-0.10,0.26,0.78,-0.65,-0.69,-1.61,-0.25,0.41,0.64,0.00
31.313,-0.14,0.34,0.87,-0.65,-0.69,-1.61,-0.25,0.41,0.64,0.00
31.314,-0.14,0.34,0.87,-0.68,-0.05,-0.57,-0.25,0.41,0.64,0.00
31.352,-0.10,0.38,0.94,-0.68,-0.05,-0.57,-0.25,0.41,0.64,0.00
31.353,-0.10,0.38,0.94,-0.68,-0.05,-0.57,-0.11,0.20,0.97,0.00
31.353,-0.10,0.38,0.94,-0.80,0.03,-0.19,-0.11,0.20,0.97,0.00
31.392,-0.10,0.38,0.94,-0.22,0.44,0.23,-0.11,0.20,0.97,0.00
31.431,-0.10,0.38,0.94,-0.22,0.44,0.23,-0.07,0.31,1.08,0.00
31.432,-0.09,0.44,0.92,-0.22,0.44,0.23,-0.07,0.31,1.08,0.00
31.432,-0.09,0.44,0.92,-0.26,0.89,-0.41,-0.07,0.31,1.08,0.00
31.47,-0.09,0.44,0.92,-0.30,1.04,0.47,-0.07,0.31,1.08,0.00
31.51,-0.09,0.44,0.92,-0.30,1.04,0.47,-0.11,0.27,0.96,0.00
31.511,-0.19,0.39,1.10,-0.30,1.04,0.47,-0.11,0.27,0.96,0.00
31.511,-0.19,0.39,1.10,-1.24,0.45,1.61,-0.11,0.27,0.96,0.00
31.55,-0.23,0.40,0.93,-1.24,0.45,1.61,-0.11,0.27,0.96,0.00
31.55,-0.23,0.40,0.93,-1.03,0.21,1.60,-0.11,0.27,0.96,0.00
31.589,-0.23,0.40,0.93,-1.03,0.21,1.60,-0.08,0.71,1.09,0.00
31.59,-0.23,0.40,0.93,-1.60,0.67,-0.40,-0.08,0.71,1.09,0.00
31.629,-0.23,0.40,0.93,-1.60,0.67,-0.40,-0.37,0.08,1.27,0.00
31.629,-0.26,0.22,1.28,-1.60,0.67,-0.40,-0.37,0.08,1.27,0.00
31.629,-0.26,0.22,1.28,-2.88,-0.44,2.99,-0.37,0.08,1.27,0.00
31.668,-0.26,0.22,1.28,-0.94,-1.74,3.50,-0.37,0.08,1.27,0.00
31.708,-0.26,0.22,1.28,-0.94,-1.74,3.50,0.04,0.62,1.69,0.00
31.708,-0.20,0.18,0.77,-0.94,-1.74,3.50,0.04,0.62,1.69,0.00
31.708,-0.20,0.18,0.77,-1.14,-1.37,-2.17,0.04,0.62,1.69,0.00
31.747,-0.27,0.07,0.94,-1.14,-1.37,-2.17,0.04,0.62,1.69,0.00
31.748,-0.27,0.07,0.94,-1.68,-1.97,0.42,0.04,0.62,1.69,0.00
31.787,-0.27,0.07,0.94,-1.68,-1.97,0.42,-0.07,0.48,1.79,0.00
31.787,-0.27,0.07,0.94,-1.98,-2.72,-0.08,-0.07,0.48,1.79,0.00
31.826,-0.27,0.07,0.94,-1.98,-2.72,-0.08,0.11,0.51,2.03,0.00
31.827,-0.10,0.18,0.84,-1.98,-2.72,-0.08,0.11,0.51,2.03,0.00
31.827,-0.10,0.18,0.84,-0.39,-1.98,-1.55,0.11,0.51,2.03,0.00
31.866,-0.10,0.18,0.84,-0.44,-1.14,-0.35,0.11,0.51,2.03,0.00
31.905,-0.10,0.18,0.84,-0.44,-1.14,-0.35,-0.06,0.26,1.71,0.00
31.906,-0.09,0.17,0.97,-0.44,-1.14,-0.35,-0.06,0.26,1.71,0.00
31.906,-0.09,0.17,0.97,-0.63,-1.85,0.43,-0.06,0.26,1.71,0.00
31.945,0.00,0.29,0.93,-0.63,-1.85,0.43,-0.06,0.26,1.71,0.00
31.945,0.00,0.29,0.93,-0.32,-1.18,-0.01,-0.06,0.26,1.71,0.00
31.984,0.00,0.29,0.93,-0.32,-1.18,-0.01,0.14,0.18,1.50,0.00
31.985,0.00,0.29,0.93,0.22,-0.53,-0.03,0.14,0.18,1.50,0.00
32.024,0.00,0.29,0.93,0.22,-0.53,-0.03,-0.07,0.40,0.98,0.00
32.024,0.01,0.38,0.97,0.22,-0.53,-0.03,-0.07,0.40,0.98,0.00
32.025,0.01,0.38,0.97,-0.09,-0.03,-0.54,-0.07,0.40,0.98,0.00
32.063,0.01,0.38,0.97,0.46,0.52,0.95,-0.07,0.40,0.98,0.00
32.103,0.01,0.38,0.97,0.46,0.52,0.95,0.04,0.24,0.64,0.00
32.104,0.07,0.40,1.05,0.46,0.52,0.95,0.04,0.24,0.64,0.00
32.104,0.07,0.40,1.05,0.88,0.46,1.32,0.04,0.24,0.64,0.00
32.145,0.05,0.43,0.93,0.88,0.46,1.32,0.04,0.24,0.64,0.00
32.145,0.05,0.43,0.93,0.60,0.37,0.83,0.04,0.24,0.64,0.00
32.183,0.05,0.43,0.93,0.60,0.37,0.83,0.08,0.26,0.42,0.00
32.183,0.05,0.43,0.93,0.71,0.71,-0.04,0.08,0.26,0.42,0.00
32.223,0.05,0.43,0.93,0.71,0.71,-0.04,-0.12,-0.35,0.04,0.00
32.223,0.05,0.43,0.93,0.90,0.35,0.13,-0.12,-0.35,0.04,0.00
32.223,0.02,0.28,1.11,0.90,0.35,0.13,-0.12,-0.35,0.04,0.00
32.262,0.02,0.28,1.11,-0.20,-1.21,2.50,-0.12,-0.35,0.04,0.00
32.301,0.02,0.28,1.11,-0.20,-1.21,2.50,0.23,0.02,0.11,0.00
32.302,-0.03,0.24,0.86,-0.20,-1.21,2.50,0.23,0.02,0.11,0.00
32.302,-0.03,0.24,0.86,-0.56,-1.47,-0.41,0.23,0.02,0.11,0.00
32.34,-0.03,0.24,0.86,0.21,-0.77,-1.22,0.23,0.02,0.11,0.00
32.38,-0.03,0.24,0.86,0.21,-0.77,-1.22,0.19,0.07,0.17,0.00
32.381,0.07,0.32,0.90,0.21,-0.77,-1.22,0.19,0.07,0.17,0.00
32.381,0.07,0.32,0.90,0.65,-0.53,-0.19,0.19,0.07,0.17,0.00
32.42,0.07,0.32,0.90,0.65,-0.53,-0.19,0.10,0.09,-0.15,0.00
32.42,-0.04,0.30,0.79,0.65,-0.53,-0.19,0.10,0.09,-0.15,0.00
32.42,-0.04,0.30,0.79,0.25,-0.76,-0.67,0.10,0.09,-0.15,0.00
32.458,-0.04,0.30,0.79,-0.43,-0.68,-1.59,0.10,0.09,-0.15,0.00
32.499,-0.04,0.30,0.79,-0.43,-0.68,-1.59,-0.22,0.26,-0.15,0.00
32.499,-0.10,0.34,0.80,-0.43,-0.68,-1.59,-0.22,0.26,-0.15,0.00
32.499,-0.10,0.34,0.80,-0.60,-0.22,-1.53,-0.22,0.26,-0.15,0.00
32.538,-0.10,0.34,0.80,-0.87,-0.14,-0.70,-0.22,0.26,-0.15,0.00
32.578,-0.10,0.34,0.80,-0.87,-0.14,-0.70,-0.21,0.15,0.06,0.00
32.578,-0.13,0.34,0.90,-0.87,-0.14,-0.70,-0.21,0.15,0.06,0.00
32.578,-0.13,0.34,0.90,-0.94,-0.12,-0.30,-0.21,0.15,0.06,0.00
32.619,-0.07,0.38,0.94,-0.94,-0.12,-0.30,-0.21,0.15,0.06,0.00
32.619,-0.07,0.38,0.94,-0.68,0.15,-0.06,-0.21,0.15,0.06,0.00
32.657,-0.07,0.38,0.94,-0.68,0.15,-0.06,-0.10,0.21,0.41,0.00
32.657,-0.07,0.38,0.94,-0.13,0.42,0.14,-0.10,0.21,0.41,0.00
32.697,-0.07,0.38,0.94,-0.13,0.42,0.14,0.13,0.25,0.51,0.00
32.698,-0.04,0.47,0.89,-0.13,0.42,0.14,0.13,0.25,0.51,0.00
32.699,-0.04,0.47,0.89,0.27,0.92,-0.53,0.13,0.25,0.51,0.00
32.736,-0.04,0.47,0.89,-0.16,1.32,-0.11,0.13,0.25,0.51,0.00
32.776,-0.04,0.47,0.89,-0.16,1.32,-0.11,0.04,0.24,0.48,0.00
32.776,-0.08,0.49,1.01,-0.16,1.32,-0.11,0.04,0.24,0.48,0.00
32.776,-0.08,0.49,1.01,-0.22,1.24,0.92,0.04,0.24,0.48,0.00
32.816,-0.08,0.45,0.98,-0.22,1.24,0.92,0.04,0.24,0.48,0.00
32.816,-0.08,0.45,0.98,-0.45,0.82,0.82,0.04,0.24,0.48,0.00
32.854,-0.08,0.45,0.98,-0.45,0.82,0.82,0.22,0.32,0.51,0.00
32.855,-0.08,0.45,0.98,-0.11,0.64,0.63,0.22,0.32,0.51,0.00
32.894,-0.08,0.45,0.98,-0.11,0.64,0.63,0.11,0.42,0.46,0.00
32.895,-0.16,0.44,1.00,-0.11,0.64,0.63,0.11,0.42,0.46,0.00
32.895,-0.16,0.44,1.00,-0.78,0.78,0.23,0.11,0.42,0.46,0.00
32.934,-0.16,0.44,1.00,-0.98,0.23,1.35,0.11,0.42,0.46,0.00
32.973,-0.16,0.44,1.00,-0.98,0.23,1.35,0.08,0.25,0.49,0.00
32.974,-0.16,0.44,1.00,-0.66,-1.77,1.80,0.08,0.25,0.49,0.00
32.974,-0.17,0.22,1.03,-0.66,-1.77,1.80,0.08,0.25,0.49,0.00
33.013,-0.15,0.33,0.86,-0.66,-1.77,1.80,0.08,0.25,0.49,0.00
33.014,-0.15,0.33,0.86,-1.66,-1.90,-1.66,0.08,0.25,0.49,0.00
33.053,-0.15,0.33,0.86,-1.66,-1.90,-1.66,0.01,0.57,0.86,0.00
33.053,-0.15,0.33,0.86,-0.60,-0.48,-0.33,0.01,0.57,0.86,0.00
33.092,-0.15,0.33,0.86,-0.60,-0.48,-0.33,0.05,0.06,0.68,0.00
33.093,-0.15,0.33,0.86,0.05,-0.82,2.35,0.05,0.06,0.68,0.00
33.093,-0.12,0.25,1.02,0.05,-0.82,2.35,0.05,0.06,0.68,0.00
33.131,-0.12,0.25,1.02,-0.76,-1.97,0.11,0.05,0.06,0.68,0.00
33.171,-0.12,0.25,1.02,0.45,-1.03,-0.31,0.05,0.06,0.68,0.00
33.171,-0.03,0.32,0.85,0.45,-1.03,-0.31,0.05,0.06,0.68,0.00
33.172,-0.03,0.32,0.85,0.45,-1.03,-0.31,0.04,0.65,0.70,0.00
33.211,-0.13,0.39,0.69,0.45,-1.03,-0.31,0.04,0.65,0.70,0.00
33.212,-0.13,0.39,0.69,1.12,-0.14,-1.16,0.04,0.65,0.70,0.00
33.25,-0.13,0.39,0.69,1.12,-0.14,-1.16,0.22,0.34,0.48,0.00
33.251,-0.13,0.39,0.69,-0.34,-0.28,-2.07,0.22,0.34,0.48,0.00
33.289,-0.13,0.39,0.69,-0.34,-0.28,-2.07,-0.10,0.04,0.41,0.00
33.29,-0.08,0.43,0.90,-0.34,-0.28,-2.07,-0.10,0.04,0.41,0.00
33.29,-0.08,0.43,0.90,-0.29,-0.46,-0.56,-0.10,0.04,0.41,0.00
33.33,-0.08,0.43,0.90,0.32,0.46,0.38,-0.10,0.04,0.41,0.00
33.369,-0.01,0.50,0.91,0.32,0.46,0.38,-0.10,0.04,0.41,0.00
33.37,-0.01,0.50,0.91,0.89,0.77,0.27,-0.10,0.04,0.41,0.00
33.37,-0.01,0.50,0.91,0.89,0.77,0.27,0.01,0.12,0.31,0.00
33.409,-0.01,0.50,0.91,0.49,0.73,-0.14,0.01,0.12,0.31,0.00
33.453,-0.01,0.50,0.91,0.49,0.73,-0.14,0.13,-0.09,0.03,0.00
33.454,0.01,0.51,0.93,0.49,0.73,-0.14,0.13,-0.09,0.03,0.00
33.454,0.01,0.51,0.93,0.87,0.84,0.36,0.13,-0.09,0.03,0.00
33.488,0.01,0.51,0.93,0.87,0.84,0.36,0.10,-0.22,-0.31,0.00
33.489,-0.08,0.46,0.95,0.87,0.84,0.36,0.10,-0.22,-0.31,0.00
33.489,-0.08,0.46,0.95,0.39,0.24,1.16,0.10,-0.22,-0.31,0.00
33.527,-0.08,0.46,0.95,-0.16,0.20,0.27,0.10,-0.22,-0.31,0.00
33.567,-0.08,0.46,0.95,-0.16,0.20,0.27,-0.10,-0.45,-0.53,0.00
33.567,-0.08,0.46,0.95,1.05,0.64,-0.64,-0.10,-0.45,-0.53,0.00
33.567,0.03,0.44,0.98,1.05,0.64,-0.64,-0.10,-0.45,-0.53,0.00
33.606,0.03,0.44,0.98,0.61,-0.46,3.02,-0.10,-0.45,-0.53,0.00
33.646,0.03,0.44,0.98,0.61,-0.46,3.02,-0.31,-0.27,-0.86,0.00
33.646,-0.18,0.20,1.00,0.61,-0.46,3.02,-0.31,-0.27,-0.86,0.00
33.647,-0.18,0.20,1.00,-0.99,-2.03,0.99,-0.31,-0.27,-0.86,0.00
33.685,-0.03,0.34,0.90,-0.99,-2.03,0.99,-0.31,-0.27,-0.86,0.00
33.686,-0.03,0.34,0.90,-0.76,-1.10,-1.19,-0.31,-0.27,-0.86,0.00
33.725,-0.03,0.34,0.90,-0.76,-1.10,-1.19,0.07,0.01,-0.25,0.00
33.726,-0.03,0.34,0.90,0.89,-0.50,0.24,0.07,0.01,-0.25,0.00
33.764,-0.03,0.34,0.90,0.81,-0.68,-0.72,0.07,0.01,-0.25,0.00
33.764,-0.05,0.33,0.84,0.81,-0.68,-0.72,0.07,0.01,-0.25,0.00
33.765,-0.05,0.33,0.84,0.81,-0.68,-0.72,0.04,-0.11,-0.36,0.00
33.805,-0.05,0.33,0.84,-0.14,-0.71,-0.57,0.04,-0.11,-0.36,0.00
33.844,-0.05,0.33,0.84,-0.14,-0.71,-0.57,-0.13,0.00,-0.31,0.00
33.844,-0.12,0.35,0.83,-0.14,-0.71,-0.57,-0.13,0.00,-0.31,0.00
33.845,-0.12,0.35,0.83,-0.25,-0.38,-0.77,-0.13,0.00,-0.31,0.00
33.883,-0.12,0.35,0.83,-0.21,-0.19,-1.13,-0.13,0.00,-0.31,0.00
33.883,-0.07,0.41,0.80,-0.21,-0.19,-1.13,-0.13,0.00,-0.31,0.00
33.923,-0.07,0.41,0.80,-0.21,-0.19,-1.13,0.00,-0.08,-0.04,0.00
33.924,-0.07,0.41,0.80,0.32,0.32,-0.98,0.00,-0.08,-0.04,0.00
33.962,-0.07,0.41,0.80,0.32,0.32,-0.98,-0.08,-0.00,-0.04,0.00
33.963,-0.10,0.46,0.85,0.32,0.32,-0.98,-0.08,-0.00,-0.04,0.00
33.963,-0.10,0.46,0.85,0.24,0.79,-1.12,-0.08,-0.00,-0.04,0.00
34.001,-0.10,0.46,0.85,-0.45,0.74,-0.01,-0.08,-0.00,-0.04,0.00
34.041,-0.10,0.46,0.85,-0.45,0.74,-0.01,-0.12,0.01,0.13,0.00
34.041,-0.13,0.48,1.05,-0.45,0.74,-0.01,-0.12,0.01,0.13,0.00
34.042,-0.13,0.48,1.05,-0.48,0.92,1.45,-0.12,0.01,0.13,0.00
34.08,-0.13,0.48,1.05,-0.13,0.91,0.86,-0.12,0.01,0.13,0.00
34.081,-0.10,0.49,0.96,-0.13,0.91,0.86,-0.12,0.01,0.13,0.00
34.12,-0.10,0.49,0.96,-0.13,0.91,0.86,0.24,0.12,0.40,0.00
34.12,-0.10,0.49,0.96,-0.14,0.81,0.46,0.24,0.12,0.40,0.00
34.16,-0.14,0.46,0.93,-0.14,0.81,0.46,0.24,0.12,0.40,0.00
34.16,-0.14,0.46,0.93,-0.14,0.81,0.46,0.10,0.35,0.40,0.00
34.16,-0.14,0.46,0.93,-0.18,0.66,0.74,0.10,0.35,0.40,0.00
34.199,-0.14,0.46,0.93,-0.66,0.36,-0.20,0.10,0.35,0.40,0.00
34.238,-0.14,0.46,0.93,-0.66,0.36,-0.20,-0.13,0.22,0.36,0.00
34.239,-0.21,0.31,1.00,-0.66,0.36,-0.20,-0.13,0.22,0.36,0.00
34.239,-0.21,0.31,1.00,-0.99,-0.62,0.79,-0.13,0.22,0.36,0.00
34.278,-0.21,0.31,1.00,-1.38,-1.79,1.30,-0.13,0.22,0.36,0.00
34.278,-0.26,0.21,0.91,-1.38,-1.79,1.30,-0.13,0.22,0.36,0.00
34.317,-0.26,0.21,0.91,-1.38,-1.79,1.30,-0.19,0.39,0.67,0.00
34.318,-0.26,0.21,0.91,-1.43,-1.74,-0.09,-0.19,0.39,0.67,0.00
34.357,-0.26,0.21,0.91,-1.43,-1.74,-0.09,-0.04,0.21,1.00,0.00
34.357,-0.19,0.29,1.06,-1.43,-1.74,-0.09,-0.04,0.21,1.00,0.00
34.358,-0.19,0.29,1.06,-1.03,-0.85,0.88,-0.04,0.21,1.00,0.00
34.397,-0.19,0.29,1.06,-0.73,-1.10,1.74,-0.04,0.21,1.00,0.00
34.436,-0.13,0.28,0.85,-0.73,-1.10,1.74,-0.04,0.21,1.00,0.00
34.437,-0.13,0.28,0.85,-0.73,-1.10,1.74,0.14,0.48,0.97,0.00
34.437,-0.13,0.28,0.85,-0.10,-1.28,0.19,0.14,0.48,0.97,0.00
34.476,-0.18,0.35,0.65,-0.10,-1.28,0.19,0.14,0.48,0.97,0.00
34.476,-0.18,0.35,0.65,-0.50,-1.25,-2.46,0.14,0.48,0.97,0.00
34.515,-0.18,0.35,0.65,-0.50,-1.25,-2.46,-0.06,0.58,0.93,0.00
34.516,-0.18,0.35,0.65,-0.67,-0.51,-2.46,-0.06,0.58,0.93,0.00
34.561,-0.18,0.35,0.65,-0.67,-0.51,-2.46,-0.17,-0.07,0.82,0.00
34.562,-0.11,0.41,0.95,-0.67,-0.51,-2.46,-0.17,-0.07,0.82,0.00
34.562,-0.11,0.41,0.95,0.08,0.21,-0.03,-0.17,-0.07,0.82,0.00
34.594,-0.11,0.41,0.95,-0.36,-0.03,0.65,-0.17,-0.07,0.82,0.00
34.635,-0.11,0.41,0.95,-0.36,-0.03,0.65,-0.06,0.30,0.67,0.00
34.636,-0.10,0.45,0.89,-0.36,-0.03,0.65,-0.06,0.30,0.67,0.00
34.636,-0.10,0.45,0.89,-0.48,0.09,-0.48,-0.06,0.30,0.67,0.00
34.674,-0.10,0.45,0.89,0.55,1.15,0.52,-0.06,0.30,0.67,0.00
34.714,-0.10,0.45,0.89,0.55,1.15,0.52,0.15,0.14,0.53,0.00
34.714,-0.03,0.52,0.89,0.55,1.15,0.52,0.15,0.14,0.53,0.00
34.715,-0.03,0.52,0.89,0.55,0.94,-0.05,0.15,0.14,0.53,0.00
34.754,-0.03,0.59,1.02,0.55,0.94,-0.05,0.15,0.14,0.53,0.00
34.755,-0.03,0.59,1.02,0.55,0.94,-0.05,0.06,0.03,0.18,0.00
34.755,-0.03,0.59,1.02,0.47,1.54,-0.61,0.06,0.03,0.18,0.00
34.792,-0.03,0.59,1.02,0.44,1.58,1.87,0.06,0.03,0.18,0.00
34.832,-0.03,0.59,1.02,0.44,1.58,1.87,0.26,-0.20,-0.08,0.00
34.833,-0.02,0.48,1.02,0.44,1.58,1.87,0.26,-0.20,-0.08,0.00
34.833,-0.02,0.48,1.02,0.59,0.36,2.24,0.26,-0.20,-0.08,0.00
34.871,-0.02,0.48,1.02,0.28,0.15,-0.20,0.26,-0.20,-0.08,0.00
34.911,-0.02,0.48,1.02,-0.22,-0.45,0.10,0.26,-0.20,-0.08,0.00
34.912,-0.08,0.40,0.92,-0.22,-0.45,0.10,0.26,-0.20,-0.08,0.00
34.912,-0.08,0.40,0.92,-0.22,-0.45,0.10,0.20,-0.28,-0.28,0.00
34.95,-0.08,0.40,0.92,-0.63,-1.73,2.34,0.20,-0.28,-0.28,0.00
34.951,-0.20,0.25,0.84,-0.63,-1.73,2.34,0.20,-0.28,-0.28,0.00
34.99,-0.20,0.25,0.84,-0.63,-1.73,2.34,0.04,0.05,-0.27,0.00
34.99,-0.20,0.25,0.84,-1.43,-2.15,-1.23,0.04,0.05,-0.27,0.00
35.029,-0.20,0.25,0.84,-1.43,-2.15,-1.23,0.29,-0.07,0.24,0.00
35.03,-0.01,0.37,0.81,-1.43,-2.15,-1.23,0.29,-0.07,0.24,0.00
35.03,-0.01,0.37,0.81,0.01,-1.10,-1.02,0.29,-0.07,0.24,0.00
35.069,-0.01,0.37,0.81,1.03,-0.82,-0.30,0.29,-0.07,0.24,0.00
35.109,-0.01,0.37,0.81,1.03,-0.82,-0.30,-0.04,0.02,-0.07,0.00
35.109,-0.08,0.35,0.82,1.03,-0.82,-0.30,-0.04,0.02,-0.07,0.00
35.11,-0.08,0.35,0.82,-0.02,-1.10,-0.49,-0.04,0.02,-0.07,0.00
35.148,-0.08,0.35,0.82,-0.32,-0.86,-1.25,-0.04,0.02,-0.07,0.00
35.149,-0.12,0.38,0.78,-0.32,-0.86,-1.25,-0.04,0.02,-0.07,0.00
35.188,-0.12,0.38,0.78,-0.32,-0.86,-1.25,-0.34,0.25,-0.18,0.00
35.188,-0.12,0.38,0.78,-0.26,-0.40,-1.05,-0.34,0.25,-0.18,0.00
35.227,-0.12,0.38,0.78,-0.26,-0.40,-1.05,-0.46,0.27,-0.07,0.00
35.228,-0.17,0.36,0.80,-0.26,-0.40,-1.05,-0.46,0.27,-0.07,0.00
35.228,-0.17,0.36,0.80,-0.79,-0.73,-0.64,-0.46,0.27,-0.07,0.00
35.267,-0.17,0.36,0.80,-0.53,-0.12,-1.15,-0.46,0.27,-0.07,0.00
35.306,-0.17,0.36,0.80,-0.53,-0.12,-1.15,-0.48,0.26,0.31,0.00
35.307,-0.18,0.41,0.88,-0.53,-0.12,-1.15,-0.48,0.26,0.31,0.00
35.308,-0.18,0.41,0.88,-0.55,0.21,-0.32,-0.48,0.26,0.31,0.00
35.346,-0.15,0.52,0.90,-0.55,0.21,-0.32,-0.48,0.26,0.31,0.00
35.347,-0.15,0.52,0.90,-1.01,0.62,-0.03,-0.48,0.26,0.31,0.00
35.385,-0.15,0.52,0.90,-1.01,0.62,-0.03,-0.25,0.08,0.77,0.00
35.386,-0.15,0.52,0.90,-0.49,1.46,-0.10,-0.25,0.08,0.77,0.00
35.425,-0.15,0.52,0.90,-0.49,1.46,-0.10,-0.10,-0.13,0.87,0.00
35.425,-0.05,0.53,1.00,-0.49,1.46,-0.10,-0.10,-0.13,0.87,0.00
35.426,-0.05,0.53,1.00,0.59,1.95,1.04,-0.10,-0.13,0.87,0.00
35.464,-0.05,0.53,1.00,-0.12,1.02,0.74,-0.10,-0.13,0.87,0.00
35.504,-0.10,0.50,0.98,-0.12,1.02,0.74,-0.10,-0.13,0.87,0.00
35.505,-0.10,0.50,0.98,-0.12,1.02,0.74,0.03,0.08,0.70,0.00
35.505,-0.10,0.50,0.98,-0.31,1.15,0.04,0.03,0.08,0.70,0.00
35.544,-0.10,0.50,0.98,-0.65,0.95,2.42,0.03,0.08,0.70,0.00
35.544,-0.24,0.38,1.02,-0.65,0.95,2.42,0.03,0.08,0.70,0.00
35.584,-0.24,0.38,1.02,-0.65,0.95,2.42,0.06,0.30,0.59,0.00
35.584,-0.24,0.38,1.02,-1.67,-0.28,0.97,0.06,0.30,0.59,0.00
35.623,-0.24,0.38,1.02,-1.67,-0.28,0.97,0.21,0.41,0.92,0.00
35.624,-0.20,0.31,0.94,-1.67,-0.28,0.97,0.21,0.41,0.92,0.00
35.624,-0.20,0.31,0.94,-1.20,-0.90,-0.39,0.21,0.41,0.92,0.00
35.662,-0.20,0.31,0.94,-1.35,-1.14,0.67,0.21,0.41,0.92,0.00
35.703,-0.20,0.31,0.94,-1.45,-1.38,0.35,0.21,0.41,0.92,0.00
35.704,-0.22,0.29,0.90,-1.45,-1.38,0.35,0.21,0.41,0.92,0.00
35.704,-0.22,0.29,0.90,-1.45,-1.38,0.35,0.17,0.30,1.03,0.00
35.742,-0.22,0.29,0.90,-1.52,-1.18,-0.71,0.17,0.30,1.03,0.00
35.781,-0.09,0.33,0.94,-1.52,-1.18,-0.71,0.17,0.30,1.03,0.00
35.782,-0.09,0.33,0.94,-1.52,-1.18,-0.71,-0.08,0.36,1.02,0.00
35.782,-0.09,0.33,0.94,-0.31,-0.88,0.34,-0.08,0.36,1.02,0.00
35.821,-0.10,0.27,0.82,-0.31,-0.88,0.34,-0.08,0.36,1.02,0.00
35.822,-0.10,0.27,0.82,-0.31,-0.88,0.34,-0.11,0.46,0.86,0.00
35.823,-0.10,0.27,0.82,-0.50,-1.45,1.03,-0.11,0.46,0.86,0.00
35.86,-0.10,0.27,0.82,-0.25,-1.35,-1.59,-0.11,0.46,0.86,0.00
35.9,-0.10,0.27,0.82,-0.25,-1.35,-1.59,-0.03,0.25,0.90,0.00
35.901,-0.08,0.36,0.83,-0.25,-1.35,-1.59,-0.03,0.25,0.90,0.00
35.901,-0.08,0.36,0.83,-0.19,-0.62,-0.97,-0.03,0.25,0.90,0.00
35.939,-0.08,0.36,0.83,-0.43,-0.36,-0.23,-0.03,0.25,0.90,0.00
35.979,-0.08,0.36,0.83,0.52,0.53,0.06,-0.03,0.25,0.90,0.00
35.979,0.01,0.47,0.91,0.52,0.53,0.06,-0.03,0.25,0.90,0.00
35.979,0.01,0.47,0.91,0.52,0.53,0.06,0.06,0.14,0.77,0.00
36.019,-0.00,0.47,0.98,0.52,0.53,0.06,0.06,0.14,0.77,0.00
36.02,-0.00,0.47,0.98,0.20,0.60,0.39,0.06,0.14,0.77,0.00
36.058,-0.00,0.47,0.98,0.20,0.60,0.39,0.14,0.11,0.37,0.00
36.059,-0.00,0.47,0.98,0.38,0.36,0.92,0.14,0.11,0.37,0.00
36.097,-0.01,0.49,0.94,0.38,0.36,0.92,0.14,0.11,0.37,0.00
36.098,-0.01,0.49,0.94,0.38,0.36,0.92,0.18,0.20,0.12,0.00
36.098,-0.01,0.49,0.94,0.42,0.66,0.31,0.18,0.20,0.12,0.00
36.137,-0.01,0.49,0.94,0.31,0.23,0.60,0.18,0.20,0.12,0.00
36.177,-0.01,0.49,0.94,0.31,0.23,0.60,0.15,0.04,-0.07,0.00
36.177,-0.05,0.46,0.91,0.31,0.23,0.60,0.15,0.04,-0.07,0.00
