
time,gFx,gFy,gFz,ax,ay,az,wx,wy,wz,Latitude,Longitude,Speed (m/s),
0.0950,0.0000,0.0000,0.0000,0.0000,0.0000,0.0000,-0.0325,0.0066,0.0064,0.00000000,0.00000000,0.00000000,
0.0970,0.0000,0.0000,0.0000,0.3661,-2.1763,3.5092,-0.0325,0.0066,0.0064,25.25407000,83.00918333,8.97675514,
0.1610,0.0000,0.0000,0.0000,0.3661,-2.1763,3.5092,-0.0289,0.0088,0.0111,25.25407000,83.00918333,8.97675514,
0.1620,0.0000,0.0000,0.0000,-0.0798,-0.4597,-1.8832,-0.0289,0.0088,0.0111,25.25407000,83.00918333,8.97675514,
0.2290,0.0000,0.0000,0.0000,-0.0798,-0.4597,-1.8832,-0.1136,0.0222,-0.0877,25.25407000,83.00918333,8.97675514,
0.2300,0.0000,0.0000,0.0000,-1.8601,0.1698,2.4268,-0.1136,0.0222,-0.0877,25.25407000,83.00918333,8.97675514,
0.2930,0.0000,0.0000,0.0000,-1.8601,0.1698,2.4268,-0.0172,-0.0155,-0.2151,25.25407000,83.00918333,8.97675514,
0.2940,0.0000,0.0000,0.0000,-0.2161,-0.2481,0.4232,-0.0172,-0.0155,-0.2151,25.25407000,83.00918333,8.97675514,
0.3590,0.0000,0.0000,0.0000,-0.2161,-0.2481,0.4232,-0.4442,0.0425,0.3651,25.25407000,83.00918333,8.97675514,
0.3610,0.0000,0.0000,0.0000,0.9228,0.0404,-0.2078,-0.4442,0.0425,0.3651,25.25407000,83.00918333,8.97675514,
0.4110,-0.0870,0.5934,0.7645,0.9228,0.0404,-0.2078,-0.4442,0.0425,0.3651,25.25407000,83.00918333,8.97675514,
0.4260,-0.0870,0.5934,0.7645,0.9228,0.0404,-0.2078,0.1553,-0.0928,-0.2584,25.25407000,83.00918333,8.97675514,
0.4280,-0.0870,0.5934,0.7645,-0.0041,-0.6563,-1.8930,0.1553,-0.0928,-0.2584,25.25407000,83.00918333,8.97675514,
0.4770,-0.0310,0.4663,0.7004,-0.0041,-0.6563,-1.8930,0.1553,-0.0928,-0.2584,25.25407000,83.00918333,8.97675514,
0.4910,-0.0310,0.4663,0.7004,-0.0041,-0.6563,-1.8930,0.6061,-0.1004,0.2155,25.25407000,83.00918333,8.97675514,
0.4930,-0.0310,0.4663,0.7004,0.2260,-1.7109,-0.6484,0.6061,-0.1004,0.2155,25.25407000,83.00918333,8.97675514,
0.5430,0.0780,0.5444,0.7285,0.2260,-1.7109,-0.6484,0.6061,-0.1004,0.2155,25.25407000,83.00918333,8.97675514,
0.5570,0.0780,0.5444,0.7285,0.2260,-1.7109,-0.6484,-1.1961,0.2835,1.5262,25.25407000,83.00918333,8.97675514,
0.5590,0.0780,0.5444,0.7285,0.9825,-0.2925,-0.8887,-1.1961,0.2835,1.5262,25.25407000,83.00918333,8.97675514,
0.6090,-0.0981,0.7595,0.5053,0.9825,-0.2925,-0.8887,-1.1961,0.2835,1.5262,25.25407000,83.00918333,8.97675514,
0.6350,-0.0981,0.7595,0.5053,0.9825,-0.2925,-0.8887,1.8552,-0.4648,-1.0063,25.25407000,83.00918333,8.97675514,
0.6370,-0.0981,0.7595,0.5053,-0.7961,0.5976,0.2667,1.8552,-0.4648,-1.0063,25.25407000,83.00918333,8.97675514,
0.6850,0.0069,0.7195,0.8386,-0.7961,0.5976,0.2667,1.8552,-0.4648,-1.0063,25.25407000,83.00918333,8.97675514,
0.6930,0.0069,0.7195,0.8386,-0.7961,0.5976,0.2667,0.2504,-0.0807,-0.0367,25.25407000,83.00918333,8.97675514,
0.6950,0.0069,0.7195,0.8386,0.3226,0.6548,-0.0140,0.2504,-0.0807,-0.0367,25.25407000,83.00918333,8.97675514,
0.7410,0.0740,0.6414,0.9747,0.3226,0.6548,-0.0140,0.2504,-0.0807,-0.0367,25.25407000,83.00918333,8.97675514,
0.7550,0.0740,0.6414,0.9747,0.3226,0.6548,-0.0140,-0.8347,0.0933,0.4535,25.25400333,83.00924667,9.45287323,
0.7570,0.0740,0.6414,0.9747,0.9210,0.0078,2.0220,-0.8347,0.0933,0.4535,25.25400333,83.00924667,9.45287323,
0.8070,0.2301,0.6123,0.6054,0.9210,0.0078,2.0220,-0.8347,0.0933,0.4535,25.25400333,83.00924667,9.45287323,
0.8230,0.2301,0.6123,0.6054,0.9210,0.0078,2.0220,0.2921,-0.0596,2.3260,25.25400333,83.00924667,9.45287323,
0.8240,0.2301,0.6123,0.6054,0.5445,-0.3159,0.1059,0.2921,-0.0596,2.3260,25.25400333,83.00924667,9.45287323,
0.8730,0.0190,0.5744,1.0247,0.5445,-0.3159,0.1059,0.2921,-0.0596,2.3260,25.25400333,83.00924667,9.45287323,
0.8870,0.0190,0.5744,1.0247,0.5445,-0.3159,0.1059,-0.9821,0.3940,0.3788,25.25400333,83.00924667,9.45287323,
0.8890,0.0190,0.5744,1.0247,-0.7738,-0.3151,1.7833,-0.9821,0.3940,0.3788,25.25400333,83.00924667,9.45287323,
0.9390,-0.0030,0.7014,0.7255,-0.7738,-0.3151,1.7833,-0.9821,0.3940,0.3788,25.25400333,83.00924667,9.45287323,
0.9530,-0.0030,0.7014,0.7255,-0.7738,-0.3151,1.7833,0.2592,0.0135,-0.8112,25.25400333,83.00924667,9.45287323,
0.9550,-0.0030,0.7014,0.7255,-0.5390,1.0397,-0.7552,0.2592,0.0135,-0.8112,25.25400333,83.00924667,9.45287323,
1.0050,-0.0169,0.6234,0.9696,-0.5390,1.0397,-0.7552,0.2592,0.0135,-0.8112,25.25400333,83.00924667,9.45287323,
1.0220,-0.0169,0.6234,0.9696,-0.5390,1.0397,-0.7552,0.0475,0.0086,-0.8370,25.25400333,83.00924667,9.45287323,
1.0240,-0.0169,0.6234,0.9696,-0.5535,-0.2722,2.6219,0.0475,0.0086,-0.8370,25.25400333,83.00924667,9.45287323,
1.0710,-0.0269,0.6534,0.7815,-0.5535,-0.2722,2.6219,0.0475,0.0086,-0.8370,25.25400333,83.00924667,9.45287323,
1.0850,-0.0269,0.6534,0.7815,-0.5535,-0.2722,2.6219,-0.0236,0.0044,-0.5534,25.25400333,83.00924667,9.45287323,
1.0870,-0.0269,0.6534,0.7815,0.2845,0.7963,-2.8158,-0.0236,0.0044,-0.5534,25.25400333,83.00924667,9.45287323,
1.1370,-0.0400,0.5744,0.9006,0.2845,0.7963,-2.8158,-0.0236,0.0044,-0.5534,25.25400333,83.00924667,9.45287323,
1.1510,-0.0400,0.5744,0.9006,0.2845,0.7963,-2.8158,0.7006,-0.1539,-0.7302,25.25400333,83.00924667,9.45287323,
1.1530,-0.0400,0.5744,0.9006,-0.1442,-0.5902,1.2484,0.7006,-0.1539,-0.7302,25.25400333,83.00924667,9.45287323,
1.2030,0.0870,0.6464,0.5703,-0.1442,-0.5902,1.2484,0.7006,-0.1539,-0.7302,25.25400333,83.00924667,9.45287323,
1.2190,0.0870,0.6464,0.5703,-0.1442,-0.5902,1.2484,0.5646,-0.1062,0.8138,25.25400333,83.00924667,9.45287323,
1.2210,0.0870,0.6464,0.5703,0.8084,0.0140,-1.9081,0.5646,-0.1062,0.8138,25.25400333,83.00924667,9.45287323,
1.2690,0.1331,0.6314,0.6754,0.8084,0.0140,-1.9081,0.5646,-0.1062,0.8138,25.25400333,83.00924667,9.45287323,
1.2830,0.1331,0.6314,0.6754,0.8084,0.0140,-1.9081,0.4979,-0.1529,1.0772,25.25400333,83.00924667,9.45287323,
1.2850,0.1331,0.6314,0.6754,1.0685,-0.3027,-0.8774,0.4979,-0.1529,1.0772,25.25400333,83.00924667,9.45287323,
1.3350,0.0760,0.6914,0.6474,1.0685,-0.3027,-0.8774,0.4979,-0.1529,1.0772,25.25400333,83.00924667,9.45287323,
1.3490,0.0760,0.6914,0.6474,1.0685,-0.3027,-0.8774,0.4194,-0.1129,0.4072,25.25400333,83.00924667,9.45287323,
1.3510,0.0760,0.6914,0.6474,-0.7059,0.0964,0.6714,0.4194,-0.1129,0.4072,25.25400333,83.00924667,9.45287323,
1.4010,0.0560,0.7364,0.7615,-0.7059,0.0964,0.6714,0.4194,-0.1129,0.4072,25.25400333,83.00924667,9.45287323,
1.4170,0.0560,0.7364,0.7615,-0.7059,0.0964,0.6714,0.0116,0.0203,-0.1885,25.25400333,83.00924667,9.45287323,
1.4190,0.0560,0.7364,0.7615,-0.2300,0.4549,0.4043,0.0116,0.0203,-0.1885,25.25400333,83.00924667,9.45287323,
1.4670,0.1420,0.6444,0.7174,-0.2300,0.4549,0.4043,0.0116,0.0203,-0.1885,25.25400333,83.00924667,9.45287323,
1.4820,0.1420,0.6444,0.7174,-0.2300,0.4549,0.4043,-0.1203,0.0280,0.4650,25.25400333,83.00924667,9.45287323,
1.4830,0.1420,0.6444,0.7174,0.8538,-0.2788,-1.6330,-0.1203,0.0280,0.4650,25.25400333,83.00924667,9.45287323,
1.5330,0.2051,0.6184,0.4112,0.8538,-0.2788,-1.6330,-0.1203,0.0280,0.4650,25.25400333,83.00924667,9.45287323,
1.5470,0.2051,0.6184,0.4112,0.8538,-0.2788,-1.6330,0.8774,-0.3523,0.8475,25.25400333,83.00924667,9.45287323,
1.5490,0.2051,0.6184,0.4112,0.0236,-1.2924,-0.0638,0.8774,-0.3523,0.8475,25.25400333,83.00924667,9.45287323,
1.5990,0.1891,0.6014,0.6924,0.0236,-1.2924,-0.0638,0.8774,-0.3523,0.8475,25.25400333,83.00924667,9.45287323,
1.6150,0.1891,0.6014,0.6924,0.0236,-1.2924,-0.0638,-0.6151,0.2371,0.8533,25.25400333,83.00924667,9.45287323,
1.6170,0.1891,0.6014,0.6924,0.2471,-0.6361,-0.3514,-0.6151,0.2371,0.8533,25.25400333,83.00924667,9.45287323,
1.6650,-0.0009,0.6264,0.9146,0.2471,-0.6361,-0.3514,-0.6151,0.2371,0.8533,25.25400333,83.00924667,9.45287323,
1.6830,-0.0009,0.6264,0.9146,0.2471,-0.6361,-0.3514,-1.1363,0.5205,-0.8491,25.25400333,83.00924667,9.45287323,
1.6860,-0.0009,0.6264,0.9146,-1.1729,-0.0464,1.4438,-1.1363,0.5205,-0.8491,25.25400333,83.00924667,9.45287323,
1.7350,-0.0960,0.6585,0.6554,-1.1729,-0.0464,1.4438,-1.1363,0.5205,-0.8491,25.25400333,83.00924667,9.45287323,
1.7450,-0.0960,0.6585,0.6554,-1.1729,-0.0464,1.4438,0.3592,-0.0670,-1.7953,25.25400333,83.00924667,9.45287323,
1.7470,-0.0960,0.6585,0.6554,-1.0160,-0.1836,-0.6700,0.3592,-0.0670,-1.7953,25.25393167,83.00931333,9.88575459,
1.7970,0.0230,0.6414,0.5123,-1.0160,-0.1836,-0.6700,0.3592,-0.0670,-1.7953,25.25393167,83.00931333,9.88575459,
1.8140,0.0230,0.6414,0.5123,-1.0160,-0.1836,-0.6700,0.9250,-0.1530,-0.7564,25.25393167,83.00931333,9.88575459,
1.8150,0.0230,0.6414,0.5123,0.1668,-0.2505,-2.4920,0.9250,-0.1530,-0.7564,25.25393167,83.00931333,9.88575459,
1.8630,0.0830,0.6404,0.8305,0.1668,-0.2505,-2.4920,0.9250,-0.1530,-0.7564,25.25393167,83.00931333,9.88575459,
1.8780,0.0830,0.6404,0.8305,0.1668,-0.2505,-2.4920,-0.1739,0.0682,0.4743,25.25393167,83.00931333,9.88575459,
1.8810,0.0830,0.6404,0.8305,0.6433,-0.5256,1.0773,-0.1739,0.0682,0.4743,25.25393167,83.00931333,9.88575459,
1.9290,0.0230,0.6614,0.9727,0.6433,-0.5256,1.0773,-0.1739,0.0682,0.4743,25.25393167,83.00931333,9.88575459,
1.9430,0.0230,0.6614,0.9727,0.6433,-0.5256,1.0773,-0.9658,0.2779,0.4009,25.25393167,83.00931333,9.88575459,
1.9450,0.0230,0.6614,0.9727,-0.5027,-0.1423,3.5746,-0.9658,0.2779,0.4009,25.25393167,83.00931333,9.88575459,
1.9950,0.0720,0.7395,0.6314,-0.5027,-0.1423,3.5746,-0.9658,0.2779,0.4009,25.25393167,83.00931333,9.88575459,
2.0130,0.0720,0.7395,0.6314,-0.5027,-0.1423,3.5746,0.2017,-0.0463,0.0432,25.25393167,83.00931333,9.88575459,
2.0140,0.0720,0.7395,0.6314,0.2781,1.0235,-2.6059,0.2017,-0.0463,0.0432,25.25393167,83.00931333,9.88575459,
2.0610,0.0510,0.5904,0.9766,0.2781,1.0235,-2.6059,0.2017,-0.0463,0.0432,25.25393167,83.00931333,9.88575459,
2.0750,0.0510,0.5904,0.9766,0.2781,1.0235,-2.6059,-0.8612,0.2113,0.0150,25.25393167,83.00931333,9.88575459,
2.0760,0.0510,0.5904,0.9766,0.3159,-0.3772,1.9464,-0.8612,0.2113,0.0150,25.25393167,83.00931333,9.88575459,
2.1270,0.1000,0.6594,0.7164,0.3159,-0.3772,1.9464,-0.8612,0.2113,0.0150,25.25393167,83.00931333,9.88575459,
2.1410,0.1000,0.6594,0.7164,0.3159,-0.3772,1.9464,0.6297,-0.1762,0.8247,25.25393167,83.00931333,9.88575459,
2.1420,0.1000,0.6594,0.7164,0.3662,0.0659,-0.3866,0.6297,-0.1762,0.8247,25.25393167,83.00931333,9.88575459,
2.1930,0.0519,0.5844,0.8696,0.3662,0.0659,-0.3866,0.6297,-0.1762,0.8247,25.25393167,83.00931333,9.88575459,
2.2090,0.0519,0.5844,0.8696,0.3662,0.0659,-0.3866,-0.7647,0.2628,0.1705,25.25393167,83.00931333,9.88575459,
2.2100,0.0519,0.5844,0.8696,-0.0800,-0.1621,-0.9590,-0.7647,0.2628,0.1705,25.25393167,83.00931333,9.88575459,
2.2590,0.0219,0.5594,0.8215,-0.0800,-0.1621,-0.9590,-0.7647,0.2628,0.1705,25.25393167,83.00931333,9.88575459,
2.2730,0.0219,0.5594,0.8215,-0.0800,-0.1621,-0.9590,-0.0839,0.0474,-0.1959,25.25393167,83.00931333,9.88575459,
2.2750,0.0219,0.5594,0.8215,-0.1664,0.0685,-0.5662,-0.0839,0.0474,-0.1959,25.25393167,83.00931333,9.88575459,
2.3250,-0.0350,0.5694,0.8626,-0.1664,0.0685,-0.5662,-0.0839,0.0474,-0.1959,25.25393167,83.00931333,9.88575459,
2.3390,-0.0350,0.5694,0.8626,-0.1664,0.0685,-0.5662,0.1496,0.0022,-0.3216,25.25393167,83.00931333,9.88575459,
2.3410,-0.0350,0.5694,0.8626,-0.7156,-0.4465,0.7264,0.1496,0.0022,-0.3216,25.25393167,83.00931333,9.88575459,
2.3910,0.0490,0.5744,0.7385,-0.7156,-0.4465,0.7264,0.1496,0.0022,-0.3216,25.25393167,83.00931333,9.88575459,
2.4070,0.0490,0.5744,0.7385,-0.7156,-0.4465,0.7264,-0.2733,0.1582,0.1211,25.25393167,83.00931333,9.88575459,
2.4090,0.0490,0.5744,0.7385,0.6914,0.8177,-3.3323,-0.2733,0.1582,0.1211,25.25393167,83.00931333,9.88575459,
2.4570,-0.1391,0.6904,0.8245,0.6914,0.8177,-3.3323,-0.2733,0.1582,0.1211,25.25393167,83.00931333,9.88575459,
2.4710,-0.1391,0.6904,0.8245,0.6914,0.8177,-3.3323,0.7532,-0.2193,-1.2806,25.25393167,83.00931333,9.88575459,
2.4730,-0.1391,0.6904,0.8245,-1.3555,0.0250,2.3961,0.7532,-0.2193,-1.2806,25.25393167,83.00931333,9.88575459,
2.5230,0.0410,0.6273,0.5523,-1.3555,0.0250,2.3961,0.7532,-0.2193,-1.2806,25.25393167,83.00931333,9.88575459,
2.5370,0.0410,0.6273,0.5523,-1.3555,0.0250,2.3961,0.0087,-0.0304,-0.0952,25.25393167,83.00931333,9.88575459,
2.5390,0.0410,0.6273,0.5523,0.6701,0.3149,-2.4645,0.0087,-0.0304,-0.0952,25.25393167,83.00931333,9.88575459,
2.5890,0.0530,0.5603,0.6914,0.6701,0.3149,-2.4645,0.0087,-0.0304,-0.0952,25.25393167,83.00931333,9.88575459,
2.6040,0.0530,0.5603,0.6914,0.6701,0.3149,-2.4645,0.6675,-0.1900,0.4315,25.25393167,83.00931333,9.88575459,
2.6060,0.0530,0.5603,0.6914,0.5897,-0.8099,-1.2047,0.6675,-0.1900,0.4315,25.25393167,83.00931333,9.88575459,
2.6550,0.0380,0.6104,0.6404,0.5897,-0.8099,-1.2047,0.6675,-0.1900,0.4315,25.25393167,83.00931333,9.88575459,
2.6830,0.0380,0.6104,0.6404,0.5897,-0.8099,-1.2047,0.3326,-0.1374,0.3846,25.25393167,83.00931333,9.88575459,
2.6850,0.0380,0.6104,0.6404,-0.3119,-0.5352,0.4558,0.3326,-0.1374,0.3846,25.25393167,83.00931333,9.88575459,
2.7220,-0.1181,0.5534,1.0857,-0.3119,-0.5352,0.4558,0.3326,-0.1374,0.3846,25.25393167,83.00931333,9.88575459,
2.7350,-0.1181,0.5534,1.0857,-0.3119,-0.5352,0.4558,-1.4541,0.3232,-0.4861,25.25385667,83.00937167,9.91560936,
2.7370,-0.1181,0.5534,1.0857,-1.1301,-0.5559,2.8679,-1.4541,0.3232,-0.4861,25.25385667,83.00937167,9.91560936,
2.7870,-0.0850,0.6714,0.6735,-1.1301,-0.5559,2.8679,-1.4541,0.3232,-0.4861,25.25385667,83.00937167,9.91560936,
2.8020,-0.0850,0.6714,0.6735,-1.1301,-0.5559,2.8679,-0.2808,0.0565,-1.1412,25.25385667,83.00937167,9.91560936,
2.8040,-0.0850,0.6714,0.6735,0.0387,1.2110,-2.7141,-0.2808,0.0565,-1.1412,25.25385667,83.00937167,9.91560936,
2.8530,-0.1010,0.6254,0.9646,0.0387,1.2110,-2.7141,-0.2808,0.0565,-1.1412,25.25385667,83.00937167,9.91560936,
2.8670,-0.1010,0.6254,0.9646,0.0387,1.2110,-2.7141,0.1285,0.0007,-0.3783,25.25385667,83.00937167,9.91560936,
2.8690,-0.1010,0.6254,0.9646,0.2052,-0.0711,1.7432,0.1285,0.0007,-0.3783,25.25385667,83.00937167,9.91560936,
2.9190,0.0440,0.6164,0.4512,0.2052,-0.0711,1.7432,0.1285,0.0007,-0.3783,25.25385667,83.00937167,9.91560936,
2.9330,0.0440,0.6164,0.4512,0.2052,-0.0711,1.7432,1.0335,-0.1122,0.6379,25.25385667,83.00937167,9.91560936,
2.9350,0.0440,0.6164,0.4512,1.1126,-0.4355,-1.9799,1.0335,-0.1122,0.6379,25.25385667,83.00937167,9.91560936,
2.9850,0.0630,0.5734,0.7574,1.1126,-0.4355,-1.9799,1.0335,-0.1122,0.6379,25.25385667,83.00937167,9.91560936,
3.0020,0.0630,0.5734,0.7574,1.1126,-0.4355,-1.9799,-0.0896,-0.0284,1.0664,25.25385667,83.00937167,9.91560936,
3.0040,0.0630,0.5734,0.7574,0.8136,-1.3291,-0.1128,-0.0896,-0.0284,1.0664,25.25385667,83.00937167,9.91560936,
3.0510,0.2842,0.3582,0.9346,0.8136,-1.3291,-0.1128,-0.0896,-0.0284,1.0664,25.25385667,83.00937167,9.91560936,
3.0660,0.2842,0.3582,0.9346,0.8136,-1.3291,-0.1128,-1.1821,0.0864,2.3520,25.25385667,83.00937167,9.91560936,
3.0680,0.2842,0.3582,0.9346,1.9647,-2.3091,1.3088,-1.1821,0.0864,2.3520,25.25385667,83.00937167,9.91560936,
3.1170,-0.0450,0.3321,1.2498,1.9647,-2.3091,1.3088,-1.1821,0.0864,2.3520,25.25385667,83.00937167,9.91560936,
3.1310,-0.0450,0.3321,1.2498,1.9647,-2.3091,1.3088,-2.6195,0.8925,0.4110,25.25385667,83.00937167,9.91560936,
3.1330,-0.0450,0.3321,1.2498,-1.2330,-0.8119,3.8806,-2.6195,0.8925,0.4110,25.25385667,83.00937167,9.91560936,
3.1830,0.0780,0.3752,0.8986,-1.2330,-0.8119,3.8806,-2.6195,0.8925,0.4110,25.25385667,83.00937167,9.91560936,
3.1990,0.0780,0.3752,0.8986,-1.2330,-0.8119,3.8806,-1.0118,0.3284,-0.3780,25.25385667,83.00937167,9.91560936,
3.2010,0.0780,0.3752,0.8986,0.3618,0.2039,-0.3560,-1.0118,0.3284,-0.3780,25.25385667,83.00937167,9.91560936,
3.2490,-0.1451,0.5223,0.9787,0.3618,0.2039,-0.3560,-1.0118,0.3284,-0.3780,25.25385667,83.00937167,9.91560936,
3.2630,-0.1451,0.5223,0.9787,0.3618,0.2039,-0.3560,0.5148,-0.0898,-2.1076,25.25385667,83.00937167,9.91560936,
3.2680,-0.1451,0.5223,0.9787,-1.6420,1.3191,0.5535,0.5148,-0.0898,-2.1076,25.25385667,83.00937167,9.91560936,
3.3150,0.2091,0.5473,0.7795,-1.6420,1.3191,0.5535,0.5148,-0.0898,-2.1076,25.25385667,83.00937167,9.91560936,
3.3290,0.2091,0.5473,0.7795,-1.6420,1.3191,0.5535,1.2069,-0.3817,0.1834,25.25385667,83.00937167,9.91560936,
3.3310,0.2091,0.5473,0.7795,1.8230,0.9413,-1.1106,1.2069,-0.3817,0.1834,25.25385667,83.00937167,9.91560936,
3.3820,0.1851,0.3862,1.1898,1.8230,0.9413,-1.1106,1.2069,-0.3817,0.1834,25.25385667,83.00937167,9.91560936,
3.3980,0.1851,0.3862,1.1898,1.8230,0.9413,-1.1106,-0.5636,0.1052,1.8517,25.25385667,83.00937167,9.91560936,
3.4040,0.1851,0.3862,1.1898,0.4532,-0.0007,1.9807,-0.5636,0.1052,1.8517,25.25385667,83.00937167,9.91560936,
3.4480,0.1651,0.3371,1.0597,0.4532,-0.0007,1.9807,-0.5636,0.1052,1.8517,25.25385667,83.00937167,9.91560936,
3.4660,0.1651,0.3371,1.0597,0.4532,-0.0007,1.9807,-0.5855,0.1335,1.6172,25.25385667,83.00937167,9.91560936,
3.4770,0.1651,0.3371,1.0597,0.5158,-0.5273,1.4260,-0.5855,0.1335,1.6172,25.25385667,83.00937167,9.91560936,
3.5130,0.1291,0.5103,0.7245,0.5158,-0.5273,1.4260,-0.5855,0.1335,1.6172,25.25385667,83.00937167,9.91560936,
3.5290,0.1291,0.5103,0.7245,0.5158,-0.5273,1.4260,0.7714,-0.3116,-0.6947,25.25385667,83.00937167,9.91560936,
3.5320,0.1291,0.5103,0.7245,0.1718,0.8797,-1.7307,0.7714,-0.3116,-0.6947,25.25385667,83.00937167,9.91560936,
3.5800,0.0130,0.5083,0.7104,0.1718,0.8797,-1.7307,0.7714,-0.3116,-0.6947,25.25385667,83.00937167,9.91560936,
3.5990,0.0130,0.5083,0.7104,0.1718,0.8797,-1.7307,1.0179,-0.2651,-1.1443,25.25385667,83.00937167,9.91560936,
3.6020,0.0130,0.5083,0.7104,-0.7793,0.4472,-2.2536,1.0179,-0.2651,-1.1443,25.25385667,83.00937167,9.91560936,
3.6450,-0.0200,0.6104,0.8615,-0.7793,0.4472,-2.2536,1.0179,-0.2651,-1.1443,25.25385667,83.00937167,9.91560936,
3.6600,-0.0200,0.6104,0.8615,-0.7793,0.4472,-2.2536,1.3199,-0.1775,-1.6852,25.25385667,83.00937167,9.91560936,
3.6630,-0.0200,0.6104,0.8615,-0.8107,0.3727,0.4237,1.3199,-0.1775,-1.6852,25.25385667,83.00937167,9.91560936,
3.7200,-0.0480,0.6084,0.8305,-0.8107,0.3727,0.4237,1.3199,-0.1775,-1.6852,25.25385667,83.00937167,9.91560936,
3.7300,-0.0480,0.6084,0.8305,-0.8107,0.3727,0.4237,0.1878,0.2173,-1.0237,25.25385667,83.00937167,9.91560936,
3.7320,-0.0480,0.6084,0.8305,-0.4972,0.2513,0.1673,0.1878,0.2173,-1.0237,25.25385667,83.00937167,9.91560936,
3.7770,-0.1770,0.5544,0.9406,-0.4972,0.2513,0.1673,0.1878,0.2173,-1.0237,25.25385667,83.00937167,9.91560936,
3.7920,-0.1770,0.5544,0.9406,-0.4972,0.2513,0.1673,-0.3366,0.2717,-1.4276,25.25377500,83.00942833,9.89193153,
3.7950,-0.1770,0.5544,0.9406,-1.7739,0.0632,0.8483,-0.3366,0.2717,-1.4276,25.25377500,83.00942833,9.89193153,
3.8420,-0.2382,0.6154,0.6364,-1.7739,0.0632,0.8483,-0.3366,0.2717,-1.4276,25.25377500,83.00942833,9.89193153,
3.8570,-0.2382,0.6154,0.6364,-1.7739,0.0632,0.8483,0.5309,0.0252,-1.9688,25.25377500,83.00942833,9.89193153,
3.8620,-0.2382,0.6154,0.6364,0.1002,0.2020,-1.7024,0.5309,0.0252,-1.9688,25.25377500,83.00942833,9.89193153,
3.9100,-0.0810,0.5894,0.6354,0.1002,0.2020,-1.7024,0.5309,0.0252,-1.9688,25.25377500,83.00942833,9.89193153,
3.9240,-0.0810,0.5894,0.6354,0.1002,0.2020,-1.7024,0.7666,-0.0007,0.1669,25.25377500,83.00942833,9.89193153,
3.9260,-0.0810,0.5894,0.6354,0.4857,-0.2998,-1.3629,0.7666,-0.0007,0.1669,25.25377500,83.00942833,9.89193153,
3.9760,-0.1170,0.6114,0.6474,0.4857,-0.2998,-1.3629,0.7666,-0.0007,0.1669,25.25377500,83.00942833,9.89193153,
3.9930,-0.1170,0.6114,0.6474,0.4857,-0.2998,-1.3629,0.8963,-0.0484,-0.1150,25.25377500,83.00942833,9.89193153,
3.9960,-0.1170,0.6114,0.6474,-0.4418,-0.4164,-0.3525,0.8963,-0.0484,-0.1150,25.25377500,83.00942833,9.89193153,
4.0420,-0.1811,0.6885,0.8715,-0.4418,-0.4164,-0.3525,0.8963,-0.0484,-0.1150,25.25377500,83.00942833,9.89193153,
4.0560,-0.1811,0.6885,0.8715,-0.4418,-0.4164,-0.3525,-0.2486,-0.0280,-0.4894,25.25377500,83.00942833,9.89193153,
4.0590,-0.1811,0.6885,0.8715,-0.9142,0.5384,1.3538,-0.2486,-0.0280,-0.4894,25.25377500,83.00942833,9.89193153,
4.1070,-0.2532,0.7485,0.7395,-0.9142,0.5384,1.3538,-0.2486,-0.0280,-0.4894,25.25377500,83.00942833,9.89193153,
4.1220,-0.2532,0.7485,0.7395,-0.9142,0.5384,1.3538,0.0780,-0.0082,-0.5936,25.25377500,83.00942833,9.89193153,
4.1240,-0.2532,0.7485,0.7395,-0.7018,1.0030,-0.0259,0.0780,-0.0082,-0.5936,25.25377500,83.00942833,9.89193153,
4.1730,-0.1481,0.6945,0.7705,-0.7018,1.0030,-0.0259,0.0780,-0.0082,-0.5936,25.25377500,83.00942833,9.89193153,
4.1920,-0.1481,0.6945,0.7705,-0.7018,1.0030,-0.0259,0.1401,0.0429,0.1717,25.25377500,83.00942833,9.89193153,
4.1980,-0.1481,0.6945,0.7705,0.6987,0.2334,-0.6745,0.1401,0.0429,0.1717,25.25377500,83.00942833,9.89193153,
4.2400,-0.1050,0.6694,0.6774,0.6987,0.2334,-0.6745,0.1401,0.0429,0.1717,25.25377500,83.00942833,9.89193153,
4.2540,-0.1050,0.6694,0.6774,0.6987,0.2334,-0.6745,0.1555,0.0192,0.7236,25.25377500,83.00942833,9.89193153,
4.2560,-0.1050,0.6694,0.6774,0.8673,-0.3102,0.2144,0.1555,0.0192,0.7236,25.25377500,83.00942833,9.89193153,
4.3050,-0.0069,0.6194,0.6874,0.8673,-0.3102,0.2144,0.1555,0.0192,0.7236,25.25377500,83.00942833,9.89193153,
4.3200,-0.0069,0.6194,0.6874,0.8673,-0.3102,0.2144,-0.4047,0.0301,1.1919,25.25377500,83.00942833,9.89193153,
4.3230,-0.0069,0.6194,0.6874,0.9962,-0.5170,-0.4489,-0.4047,0.0301,1.1919,25.25377500,83.00942833,9.89193153,
4.3720,-0.0510,0.6554,0.6864,0.9962,-0.5170,-0.4489,-0.4047,0.0301,1.1919,25.25377500,83.00942833,9.89193153,
4.3880,-0.0510,0.6554,0.6864,0.9962,-0.5170,-0.4489,0.2486,-0.0313,0.7598,25.25377500,83.00942833,9.89193153,
4.3960,-0.0510,0.6554,0.6864,0.0994,-0.3253,-0.3622,0.2486,-0.0313,0.7598,25.25377500,83.00942833,9.89193153,
4.4380,-0.0840,0.7045,0.6334,0.0994,-0.3253,-0.3622,0.2486,-0.0313,0.7598,25.25377500,83.00942833,9.89193153,
4.4930,-0.0840,0.7045,0.6334,0.0994,-0.3253,-0.3622,0.2600,-0.0488,0.0101,25.25377500,83.00942833,9.89193153,
4.5030,-0.0840,0.7045,0.6334,-0.2771,0.0848,-0.8184,0.2600,-0.0488,0.0101,25.25377500,83.00942833,9.89193153,
4.5040,-0.2371,0.6854,1.0116,-0.2771,0.0848,-0.8184,0.2600,-0.0488,0.0101,25.25377500,83.00942833,9.89193153,
4.5170,-0.2371,0.6854,1.0116,-0.2771,0.0848,-0.8184,-0.8419,-0.0104,-1.2992,25.25377500,83.00942833,9.89193153,
4.5190,-0.2371,0.6854,1.0116,-0.8419,0.3043,0.8128,-0.8419,-0.0104,-1.2992,25.25377500,83.00942833,9.89193153,
4.5690,-0.1681,0.7485,0.5734,-0.8419,0.3043,0.8128,-0.8419,-0.0104,-1.2992,25.25377500,83.00942833,9.89193153,
4.5850,-0.1681,0.7485,0.5734,-0.8419,0.3043,0.8128,0.7882,-0.0390,-0.7314,25.25377500,83.00942833,9.89193153,
4.5870,-0.1681,0.7485,0.5734,-0.2051,0.6552,-1.4136,0.7882,-0.0390,-0.7314,25.25377500,83.00942833,9.89193153,
4.6350,-0.0950,0.6544,0.7155,-0.2051,0.6552,-1.4136,0.7882,-0.0390,-0.7314,25.25377500,83.00942833,9.89193153,
4.6490,-0.0950,0.6544,0.7155,-0.2051,0.6552,-1.4136,0.2845,-0.0538,-0.0375,25.25377500,83.00942833,9.89193153,
4.6500,-0.0950,0.6544,0.7155,0.5728,-0.4658,0.1874,0.2845,-0.0538,-0.0375,25.25377500,83.00942833,9.89193153,
4.7080,-0.0931,0.6324,0.8336,0.5728,-0.4658,0.1874,0.2845,-0.0538,-0.0375,25.25377500,83.00942833,9.89193153,
4.7160,-0.0931,0.6324,0.8336,0.5728,-0.4658,0.1874,-0.8608,-0.0162,0.6913,25.25377500,83.00942833,9.89193153,
4.7170,-0.0931,0.6324,0.8336,0.4832,-0.5771,1.2309,-0.8608,-0.0162,0.6913,25.25377500,83.00942833,9.89193153,
4.7670,-0.0840,0.6654,0.6735,0.4832,-0.5771,1.2309,-0.8608,-0.0162,0.6913,25.25377500,83.00942833,9.89193153,
4.7830,-0.0840,0.6654,0.6735,0.4832,-0.5771,1.2309,-0.0424,0.0037,0.7083,25.25370167,83.00949333,9.62685013,
4.7850,-0.0840,0.6654,0.6735,-0.0736,0.0525,-0.7316,-0.0424,0.0037,0.7083,25.25370167,83.00949333,9.62685013,
4.8330,-0.1391,0.7024,0.6635,-0.0736,0.0525,-0.7316,-0.0424,0.0037,0.7083,25.25370167,83.00949333,9.62685013,
4.8470,-0.1391,0.7024,0.6635,-0.0736,0.0525,-0.7316,0.2858,-0.0475,-0.4304,25.25370167,83.00949333,9.62685013,
4.8540,-0.1391,0.7024,0.6635,-0.4778,0.3509,-0.7566,0.2858,-0.0475,-0.4304,25.25370167,83.00949333,9.62685013,
4.8990,-0.1601,0.6744,0.6794,-0.4778,0.3509,-0.7566,0.2858,-0.0475,-0.4304,25.25370167,83.00949333,9.62685013,
4.9150,-0.1601,0.6744,0.6794,-0.4778,0.3509,-0.7566,0.4108,-0.0369,-0.6997,25.25370167,83.00949333,9.62685013,
4.9170,-0.1601,0.6744,0.6794,0.3106,0.0647,-0.9949,0.4108,-0.0369,-0.6997,25.25370167,83.00949333,9.62685013,
4.9650,-0.2091,0.7515,0.6454,0.3106,0.0647,-0.9949,0.4108,-0.0369,-0.6997,25.25370167,83.00949333,9.62685013,
4.9840,-0.2091,0.7515,0.6454,0.3106,0.0647,-0.9949,0.6494,-0.0217,-0.5651,25.25370167,83.00949333,9.62685013,
4.9890,-0.2091,0.7515,0.6454,-0.4968,0.0533,0.8302,0.6494,-0.0217,-0.5651,25.25370167,83.00949333,9.62685013,
5.0320,-0.1481,0.8365,0.5133,-0.4968,0.0533,0.8302,0.6494,-0.0217,-0.5651,25.25370167,83.00949333,9.62685013,
5.0470,-0.1481,0.8365,0.5133,-0.4968,0.0533,0.8302,0.7109,0.0439,-0.0247,25.25370167,83.00949333,9.62685013,
5.0630,-0.1481,0.8365,0.5133,0.0618,1.0944,-1.5585,0.7109,0.0439,-0.0247,25.25370167,83.00949333,9.62685013,
5.0990,-0.2611,0.7915,0.8576,0.0618,1.0944,-1.5585,0.7109,0.0439,-0.0247,25.25370167,83.00949333,9.62685013,
5.1120,-0.2611,0.7915,0.8576,0.0618,1.0944,-1.5585,0.2710,-0.0160,-0.6358,25.25370167,83.00949333,9.62685013,
5.1150,-0.2611,0.7915,0.8576,-0.7777,0.4131,2.1546,0.2710,-0.0160,-0.6358,25.25370167,83.00949333,9.62685013,
5.1630,-0.2251,0.8636,0.5463,-0.7777,0.4131,2.1546,0.2710,-0.0160,-0.6358,25.25370167,83.00949333,9.62685013,
5.1830,-0.2251,0.8636,0.5463,-0.7777,0.4131,2.1546,0.5213,0.0046,-0.2830,25.25370167,83.00949333,9.62685013,
5.1850,-0.2251,0.8636,0.5463,-0.0478,0.8200,-0.2297,0.5213,0.0046,-0.2830,25.25370167,83.00949333,9.62685013,
5.2290,-0.2682,0.7414,1.1517,-0.0478,0.8200,-0.2297,0.5213,0.0046,-0.2830,25.25370167,83.00949333,9.62685013,
5.2440,-0.2682,0.7414,1.1517,-0.0478,0.8200,-0.2297,-1.3098,-0.2464,-0.2461,25.25370167,83.00949333,9.62685013,
5.2470,-0.2682,0.7414,1.1517,-0.6414,0.2103,4.7733,-1.3098,-0.2464,-0.2461,25.25370167,83.00949333,9.62685013,
5.2950,-0.0419,0.6654,0.6785,-0.6414,0.2103,4.7733,-1.3098,-0.2464,-0.2461,25.25370167,83.00949333,9.62685013,
5.3110,-0.0419,0.6654,0.6785,-0.6414,0.2103,4.7733,-0.7637,-0.0916,0.8373,25.25370167,83.00949333,9.62685013,
5.3140,-0.0419,0.6654,0.6785,1.2751,-0.1971,-0.2920,-0.7637,-0.0916,0.8373,25.25370167,83.00949333,9.62685013,
5.3630,0.0280,0.5963,0.7164,1.2751,-0.1971,-0.2920,-0.7637,-0.0916,0.8373,25.25370167,83.00949333,9.62685013,
5.3790,0.0280,0.5963,0.7164,1.2751,-0.1971,-0.2920,-0.6107,0.0579,1.4344,25.25370167,83.00949333,9.62685013,
5.3860,0.0280,0.5963,0.7164,0.9071,-0.5876,-2.2025,-0.6107,0.0579,1.4344,25.25370167,83.00949333,9.62685013,
5.4280,-0.2832,0.8526,0.4893,0.9071,-0.5876,-2.2025,-0.6107,0.0579,1.4344,25.25370167,83.00949333,9.62685013,
5.4420,-0.2832,0.8526,0.4893,0.9071,-0.5876,-2.2025,1.9781,-0.1691,-1.1668,25.25370167,83.00949333,9.62685013,
5.4450,-0.2832,0.8526,0.4893,-1.4211,1.2488,-1.8258,1.9781,-0.1691,-1.1668,25.25370167,83.00949333,9.62685013,
5.4930,-0.0620,0.1451,1.0587,-1.4211,1.2488,-1.8258,1.9781,-0.1691,-1.1668,25.25370167,83.00949333,9.62685013,
5.5090,-0.0620,0.1451,1.0587,-1.4211,1.2488,-1.8258,-4.5358,-0.4446,0.4015,25.25370167,83.00949333,9.62685013,
5.5120,-0.0620,0.1451,1.0587,1.0545,-4.6940,2.8923,-4.5358,-0.4446,0.4015,25.25370167,83.00949333,9.62685013,
5.5600,-0.4833,0.8786,0.3572,1.0545,-4.6940,2.8923,-4.5358,-0.4446,0.4015,25.25370167,83.00949333,9.62685013,
5.5780,-0.4833,0.8786,0.3572,1.0545,-4.6940,2.8923,0.4710,-0.2119,-3.2823,25.25370167,83.00949333,9.62685013,
5.5820,-0.4833,0.8786,0.3572,1.5062,0.6332,-5.0149,0.4710,-0.2119,-3.2823,25.25370167,83.00949333,9.62685013,
5.6320,-0.2861,1.1017,-0.0931,1.5062,0.6332,-5.0149,0.4710,-0.2119,-3.2823,25.25370167,83.00949333,9.62685013,
5.6390,-0.2861,1.1017,-0.0931,1.5062,0.6332,-5.0149,4.6689,1.5882,0.9981,25.25370167,83.00949333,9.62685013,
5.6420,-0.2861,1.1017,-0.0931,-0.3231,3.1898,-3.0668,4.6689,1.5882,0.9981,25.25370167,83.00949333,9.62685013,
5.6920,-0.3892,1.2118,0.4443,-0.3231,3.1898,-3.0668,4.6689,1.5882,0.9981,25.25370167,83.00949333,9.62685013,
5.7170,-0.3892,1.2118,0.4443,-0.3231,3.1898,-3.0668,2.0739,0.7115,0.4445,25.25370167,83.00949333,9.62685013,
5.7210,-0.3892,1.2118,0.4443,-0.9559,3.3919,0.3521,2.0739,0.7115,0.4445,25.25370167,83.00949333,9.62685013,
5.7580,-0.4202,1.0988,0.3362,-0.9559,3.3919,0.3521,2.0739,0.7115,0.4445,25.25370167,83.00949333,9.62685013,
5.7740,-0.4202,1.0988,0.3362,-0.9559,3.3919,0.3521,1.5814,0.4123,0.0141,25.25363000,83.00954833,9.05705261,
5.7760,-0.4202,1.0988,0.3362,-0.9237,0.6815,1.2864,1.5814,0.4123,0.0141,25.25363000,83.00954833,9.05705261,
5.8230,-0.2021,0.7345,0.1131,-0.9237,0.6815,1.2864,1.5814,0.4123,0.0141,25.25363000,83.00954833,9.05705261,
5.8370,-0.2021,0.7345,0.1131,-0.9237,0.6815,1.2864,0.6593,0.1234,0.1343,25.25363000,83.00954833,9.05705261,
5.8390,-0.2021,0.7345,0.1131,2.4518,-3.0065,-4.5142,0.6593,0.1234,0.1343,25.25363000,83.00954833,9.05705261,
5.8890,-0.0860,0.6014,0.3462,2.4518,-3.0065,-4.5142,0.6593,0.1234,0.1343,25.25363000,83.00954833,9.05705261,
5.9030,-0.0860,0.6014,0.3462,2.4518,-3.0065,-4.5142,0.9795,0.4224,1.2308,25.25363000,83.00954833,9.05705261,
5.9040,-0.0860,0.6014,0.3462,1.3692,-3.5726,2.1058,0.9795,0.4224,1.2308,25.25363000,83.00954833,9.05705261,
5.9550,-0.1200,0.5073,1.1348,1.3692,-3.5726,2.1058,0.9795,0.4224,1.2308,25.25363000,83.00954833,9.05705261,
5.9740,-0.1200,0.5073,1.1348,1.3692,-3.5726,2.1058,-7.9034,-2.3577,-2.0741,25.25363000,83.00954833,9.05705261,
5.9770,-0.1200,0.5073,1.1348,1.7399,-1.5783,3.5003,-7.9034,-2.3577,-2.0741,25.25363000,83.00954833,9.05705261,
6.0210,-0.2111,0.9246,-0.0850,1.7399,-1.5783,3.5003,-7.9034,-2.3577,-2.0741,25.25363000,83.00954833,9.05705261,
6.0410,-0.2111,0.9246,-0.0850,1.7399,-1.5783,3.5003,1.1086,0.4384,0.3278,25.25363000,83.00954833,9.05705261,
6.0440,-0.2111,0.9246,-0.0850,1.3159,2.6708,-3.3196,1.1086,0.4384,0.3278,25.25363000,83.00954833,9.05705261,
6.0890,-0.0240,1.0967,-0.0610,1.3159,2.6708,-3.3196,1.1086,0.4384,0.3278,25.25363000,83.00954833,9.05705261,
6.1030,-0.0240,1.0967,-0.0610,1.3159,2.6708,-3.3196,2.9691,1.0138,0.6693,25.25363000,83.00954833,9.05705261,
6.1060,-0.0240,1.0967,-0.0610,2.6638,2.6491,-5.3053,2.9691,1.0138,0.6693,25.25363000,83.00954833,9.05705261,
6.1530,-0.1260,0.7835,0.2351,2.6638,2.6491,-5.3053,2.9691,1.0138,0.6693,25.25363000,83.00954833,9.05705261,
6.1740,-0.1260,0.7835,0.2351,2.6638,2.6491,-5.3053,0.6028,0.1648,-0.4432,25.25363000,83.00954833,9.05705261,
6.1760,-0.1260,0.7835,0.2351,2.5739,-1.5468,-2.3931,0.6028,0.1648,-0.4432,25.25363000,83.00954833,9.05705261,
6.2190,-0.6614,0.8856,1.1708,2.5739,-1.5468,-2.3931,0.6028,0.1648,-0.4432,25.25363000,83.00954833,9.05705261,
6.2370,-0.6614,0.8856,1.1708,2.5739,-1.5468,-2.3931,-2.7858,-1.0593,-1.9154,25.25363000,83.00954833,9.05705261,
6.2410,-0.6614,0.8856,1.1708,0.5285,-1.7936,0.3725,-2.7858,-1.0593,-1.9154,25.25363000,83.00954833,9.05705261,
6.2850,-0.2661,0.8315,-0.0580,0.5285,-1.7936,0.3725,-2.7858,-1.0593,-1.9154,25.25363000,83.00954833,9.05705261,
6.3020,-0.2661,0.8315,-0.0580,0.5285,-1.7936,0.3725,0.8489,0.3695,-0.6957,25.25363000,83.00954833,9.05705261,
6.3050,-0.2661,0.8315,-0.0580,3.7209,-1.0864,-9.0273,0.8489,0.3695,-0.6957,25.25363000,83.00954833,9.05705261,
6.3520,-0.2221,0.8176,0.2611,3.7209,-1.0864,-9.0273,0.8489,0.3695,-0.6957,25.25363000,83.00954833,9.05705261,
6.3730,-0.2221,0.8176,0.2611,3.7209,-1.0864,-9.0273,0.4366,0.2502,-0.3480,25.25363000,83.00954833,9.05705261,
6.3790,-0.2221,0.8176,0.2611,2.0146,0.4975,-2.1450,0.4366,0.2502,-0.3480,25.25363000,83.00954833,9.05705261,
6.4170,-0.2521,0.7374,0.0780,2.0146,0.4975,-2.1450,0.4366,0.2502,-0.3480,25.25363000,83.00954833,9.05705261,
6.4350,-0.2521,0.7374,0.0780,2.0146,0.4975,-2.1450,-0.1264,0.0190,-0.3226,25.25363000,83.00954833,9.05705261,
6.4380,-0.2521,0.7374,0.0780,2.0061,0.1800,-4.3787,-0.1264,0.0190,-0.3226,25.25363000,83.00954833,9.05705261,
6.4830,0.0109,0.7915,-0.5684,2.0061,0.1800,-4.3787,-0.1264,0.0190,-0.3226,25.25363000,83.00954833,9.05705261,
6.5020,0.0109,0.7915,-0.5684,2.0061,0.1800,-4.3787,2.8324,1.8056,1.5189,25.25363000,83.00954833,9.05705261,
6.5050,0.0109,0.7915,-0.5684,0.2818,-1.1006,-0.3875,2.8324,1.8056,1.5189,25.25363000,83.00954833,9.05705261,
6.5490,-0.7064,1.1417,1.0357,0.2818,-1.1006,-0.3875,2.8324,1.8056,1.5189,25.25363000,83.00954833,9.05705261,
6.5840,-0.7064,1.1417,1.0357,0.2818,-1.1006,-0.3875,-1.4165,-0.7595,-0.6100,25.25363000,83.00954833,9.05705261,
6.5870,-0.7064,1.1417,1.0357,-0.9982,-0.9006,-0.7575,-1.4165,-0.7595,-0.6100,25.25363000,83.00954833,9.05705261,
6.6160,-0.0720,0.6844,-0.3312,-0.9982,-0.9006,-0.7575,-1.4165,-0.7595,-0.6100,25.25363000,83.00954833,9.05705261,
6.6330,-0.0720,0.6844,-0.3312,-0.9982,-0.9006,-0.7575,2.7695,1.7585,1.8998,25.25363000,83.00954833,9.05705261,
6.6340,-0.0720,0.6844,-0.3312,3.5577,-1.5146,-6.4692,2.7695,1.7585,1.8998,25.25363000,83.00954833,9.05705261,
6.6880,-0.0460,1.0747,0.1811,3.5577,-1.5146,-6.4692,2.7695,1.7585,1.8998,25.25363000,83.00954833,9.05705261,
6.6990,-0.0460,1.0747,0.1811,3.5577,-1.5146,-6.4692,-0.8805,-0.0163,1.1767,25.25363000,83.00954833,9.05705261,
6.7010,-0.0460,1.0747,0.1811,0.3810,-2.4596,2.3053,-0.8805,-0.0163,1.1767,25.25363000,83.00954833,9.05705261,
6.7480,-0.0500,0.5373,0.0069,0.3810,-2.4596,2.3053,-0.8805,-0.0163,1.1767,25.25363000,83.00954833,9.05705261,
6.7630,-0.0500,0.5373,0.0069,0.3810,-2.4596,2.3053,-0.3342,-0.0754,0.4128,25.25356000,83.00959500,8.60512638,
6.7670,-0.0500,0.5373,0.0069,-1.4918,-1.6638,2.2177,-0.3342,-0.0754,0.4128,25.25356000,83.00959500,8.60512638,
6.8130,-0.2742,0.4312,0.4753,-1.4918,-1.6638,2.2177,-0.3342,-0.0754,0.4128,25.25356000,83.00959500,8.60512638,
6.8270,-0.2742,0.4312,0.4753,-1.4918,-1.6638,2.2177,-1.1526,-0.2811,0.5474,25.25356000,83.00959500,8.60512638,
6.8380,-0.2742,0.4312,0.4753,0.9504,-3.4854,-0.1857,-1.1526,-0.2811,0.5474,25.25356000,83.00959500,8.60512638,
6.8800,-0.6144,0.9527,0.9566,0.9504,-3.4854,-0.1857,-1.1526,-0.2811,0.5474,25.25356000,83.00959500,8.60512638,
6.8950,-0.6144,0.9527,0.9566,0.9504,-3.4854,-0.1857,-0.4359,-0.2425,-0.2436,25.25356000,83.00959500,8.60512638,
6.8970,-0.6144,0.9527,0.9566,-2.2107,1.9514,4.1679,-0.4359,-0.2425,-0.2436,25.25356000,83.00959500,8.60512638,
6.9460,0.0069,0.6945,-0.2081,-2.2107,1.9514,4.1679,-0.4359,-0.2425,-0.2436,25.25356000,83.00959500,8.60512638,
6.9640,0.0069,0.6945,-0.2081,-2.2107,1.9514,4.1679,2.8764,1.3976,2.4264,25.25356000,83.00959500,8.60512638,
6.9700,0.0069,0.6945,-0.2081,-0.1700,-2.5719,-0.0076,2.8764,1.3976,2.4264,25.25356000,83.00959500,8.60512638,
7.0110,-0.7305,1.0127,1.0437,-0.1700,-2.5719,-0.0076,2.8764,1.3976,2.4264,25.25356000,83.00959500,8.60512638,
7.0260,-0.7305,1.0127,1.0437,-0.1700,-2.5719,-0.0076,-2.2826,-1.1618,-2.2419,25.25356000,83.00959500,8.60512638,
7.0290,-0.7305,1.0127,1.0437,-3.5671,2.1384,5.4690,-2.2826,-1.1618,-2.2419,25.25356000,83.00959500,8.60512638,
7.0770,-0.1801,0.4222,-0.1541,-3.5671,2.1384,5.4690,-2.2826,-1.1618,-2.2419,25.25356000,83.00959500,8.60512638,
7.0930,-0.1801,0.4222,-0.1541,-3.5671,2.1384,5.4690,0.8657,0.3840,0.4241,25.25356000,83.00959500,8.60512638,
7.0950,-0.1801,0.4222,-0.1541,1.6015,-3.9921,-5.8375,0.8657,0.3840,0.4241,25.25356000,83.00959500,8.60512638,
7.1430,-0.7615,0.9256,1.2048,1.6015,-3.9921,-5.8375,0.8657,0.3840,0.4241,25.25356000,83.00959500,8.60512638,
7.1620,-0.7615,0.9256,1.2048,1.6015,-3.9921,-5.8375,-1.2794,-0.5158,-0.7351,25.25356000,83.00959500,8.60512638,
7.1690,-0.7615,0.9256,1.2048,3.9588,0.3553,-2.3620,-1.2794,-0.5158,-0.7351,25.25356000,83.00959500,8.60512638,
7.2100,-0.9566,0.7264,1.0647,3.9588,0.3553,-2.3620,-1.2794,-0.5158,-0.7351,25.25356000,83.00959500,8.60512638,
7.2240,-0.9566,0.7264,1.0647,3.9588,0.3553,-2.3620,-1.1071,-0.5836,-1.3008,25.25356000,83.00959500,8.60512638,
7.2270,-0.9566,0.7264,1.0647,-0.6256,1.5234,1.5514,-1.1071,-0.5836,-1.3008,25.25356000,83.00959500,8.60512638,
7.2760,-0.5484,1.0057,0.9937,-0.6256,1.5234,1.5514,-1.1071,-0.5836,-1.3008,25.25356000,83.00959500,8.60512638,
7.2900,-0.5484,1.0057,0.9937,-0.6256,1.5234,1.5514,-1.0967,-0.7448,-1.5125,25.25356000,83.00959500,8.60512638,
7.2940,-0.5484,1.0057,0.9937,-1.3694,2.4556,4.7018,-1.0967,-0.7448,-1.5125,25.25356000,83.00959500,8.60512638,
7.3420,-0.1870,0.7926,0.0890,-1.3694,2.4556,4.7018,-1.0967,-0.7448,-1.5125,25.25356000,83.00959500,8.60512638,
7.3580,-0.1870,0.7926,0.0890,-1.3694,2.4556,4.7018,0.9640,0.5571,0.8036,25.25356000,83.00959500,8.60512638,
7.3620,-0.1870,0.7926,0.0890,6.3968,1.6431,-10.2486,0.9640,0.5571,0.8036,25.25356000,83.00959500,8.60512638,
7.4070,-0.1591,0.5153,-0.0881,6.3968,1.6431,-10.2486,0.9640,0.5571,0.8036,25.25356000,83.00959500,8.60512638,
7.4210,-0.1591,0.5153,-0.0881,6.3968,1.6431,-10.2486,2.7295,0.8254,0.2351,25.25356000,83.00959500,8.60512638,
7.4230,-0.1591,0.5153,-0.0881,1.8880,-3.7684,-3.4140,2.7295,0.8254,0.2351,25.25356000,83.00959500,8.60512638,
7.4730,-0.3232,0.6874,0.2601,1.8880,-3.7684,-3.4140,2.7295,0.8254,0.2351,25.25356000,83.00959500,8.60512638,
7.4890,-0.3232,0.6874,0.2601,1.8880,-3.7684,-3.4140,-3.2896,-1.7400,-2.3185,25.25356000,83.00959500,8.60512638,
7.4930,-0.3232,0.6874,0.2601,0.9860,-0.7233,-2.2738,-3.2896,-1.7400,-2.3185,25.25356000,83.00959500,8.60512638,
7.5390,0.5623,0.7205,-0.7895,0.9860,-0.7233,-2.2738,-3.2896,-1.7400,-2.3185,25.25356000,83.00959500,8.60512638,
7.5560,0.5623,0.7205,-0.7895,0.9860,-0.7233,-2.2738,0.9478,1.0294,2.4481,25.25356000,83.00959500,8.60512638,
7.5590,0.5623,0.7205,-0.7895,9.4273,-0.4807,-12.6304,0.9478,1.0294,2.4481,25.25356000,83.00959500,8.60512638,
7.6050,-0.3572,1.1147,0.5444,9.4273,-0.4807,-12.6304,0.9478,1.0294,2.4481,25.25356000,83.00959500,8.60512638,
7.6190,-0.3572,1.1147,0.5444,9.4273,-0.4807,-12.6304,1.0142,0.8794,1.9852,25.25356000,83.00959500,8.60512638,
7.6220,-0.3572,1.1147,0.5444,-0.6800,2.3316,1.5444,1.0142,0.8794,1.9852,25.25356000,83.00959500,8.60512638,
7.6790,-0.0720,0.5334,-0.4293,-0.6800,2.3316,1.5444,1.0142,0.8794,1.9852,25.25356000,83.00959500,8.60512638,
7.6890,-0.0720,0.5334,-0.4293,-0.6800,2.3316,1.5444,0.7186,-0.0914,-1.4582,25.25356000,83.00959500,8.60512638,
7.6910,-0.0720,0.5334,-0.4293,3.2187,-2.5942,-8.6330,0.7186,-0.0914,-1.4582,25.25356000,83.00959500,8.60512638,
7.7370,-0.6114,1.3169,0.8036,3.2187,-2.5942,-8.6330,0.7186,-0.0914,-1.4582,25.25356000,83.00959500,8.60512638,
7.7560,-0.6114,1.3169,0.8036,3.2187,-2.5942,-8.6330,6.2680,2.7476,2.1870,25.25349167,83.00963167,8.15062618,
7.7580,-0.6114,1.3169,0.8036,-6.2504,-3.4571,11.9794,6.2680,2.7476,2.1870,25.25349167,83.00963167,8.15062618,
7.8030,-0.6564,1.1438,1.3319,-6.2504,-3.4571,11.9794,6.2680,2.7476,2.1870,25.25349167,83.00963167,8.15062618,
7.8170,-0.6564,1.1438,1.3319,-6.2504,-3.4571,11.9794,-1.6561,-1.0410,0.3057,25.25349167,83.00963167,8.15062618,
7.8190,-0.6564,1.1438,1.3319,-1.8158,4.2320,7.9378,-1.6561,-1.0410,0.3057,25.25349167,83.00963167,8.15062618,
7.8700,-0.3142,0.5854,0.2682,-1.8158,4.2320,7.9378,-1.6561,-1.0410,0.3057,25.25349167,83.00963167,8.15062618,
7.8830,-0.3142,0.5854,0.2682,-1.8158,4.2320,7.9378,1.2887,0.9090,1.0674,25.25349167,83.00963167,8.15062618,
7.8840,-0.3142,0.5854,0.2682,6.8049,-0.7992,-10.1607,1.2887,0.9090,1.0674,25.25349167,83.00963167,8.15062618,
7.9350,0.1160,0.6494,-0.1140,6.8049,-0.7992,-10.1607,1.2887,0.9090,1.0674,25.25349167,83.00963167,8.15062618,
7.9550,0.1160,0.6494,-0.1140,6.8049,-0.7992,-10.1607,-2.4279,-0.2618,1.8822,25.25349167,83.00963167,8.15062618,
7.9580,0.1160,0.6494,-0.1140,4.5538,-0.8742,-6.7819,-2.4279,-0.2618,1.8822,25.25349167,83.00963167,8.15062618,
8.0010,-0.2932,1.0878,-0.1831,4.5538,-0.8742,-6.7819,-2.4279,-0.2618,1.8822,25.25349167,83.00963167,8.15062618,
8.0260,-0.2932,1.0878,-0.1831,4.5538,-0.8742,-6.7819,2.5364,0.5584,0.3658,25.25349167,83.00963167,8.15062618,
8.0290,-0.2932,1.0878,-0.1831,0.4822,2.7287,-6.4845,2.5364,0.5584,0.3658,25.25349167,83.00963167,8.15062618,
8.0680,-0.0800,0.8365,-0.2882,0.4822,2.7287,-6.4845,2.5364,0.5584,0.3658,25.25349167,83.00963167,8.15062618,
8.0820,-0.0800,0.8365,-0.2882,0.4822,2.7287,-6.4845,1.4635,0.4208,1.2513,25.25349167,83.00963167,8.15062618,
8.0850,-0.0800,0.8365,-0.2882,1.9873,-0.1562,-7.1479,1.4635,0.4208,1.2513,25.25349167,83.00963167,8.15062618,
8.1330,-0.1220,0.5944,0.3061,1.9873,-0.1562,-7.1479,1.4635,0.4208,1.2513,25.25349167,83.00963167,8.15062618,
8.1500,-0.1220,0.5944,0.3061,1.9873,-0.1562,-7.1479,-0.5105,0.0607,1.1098,25.25349167,83.00963167,8.15062618,
8.1570,-0.1220,0.5944,0.3061,-0.1035,-0.1944,0.7938,-0.5105,0.0607,1.1098,25.25349167,83.00963167,8.15062618,
8.2000,-0.1791,0.5334,0.8526,-0.1035,-0.1944,0.7938,-0.5105,0.0607,1.1098,25.25349167,83.00963167,8.15062618,
8.2130,-0.1791,0.5334,0.8526,-0.1035,-0.1944,0.7938,-3.1590,0.1399,0.8951,25.25349167,83.00963167,8.15062618,
8.2140,-0.1791,0.5334,0.8526,-0.2215,-2.2345,2.1792,-3.1590,0.1399,0.8951,25.25349167,83.00963167,8.15062618,
8.2660,0.0000,0.5984,0.8296,-0.2215,-2.2345,2.1792,-3.1590,0.1399,0.8951,25.25349167,83.00963167,8.15062618,
8.2850,0.0000,0.5984,0.8296,-0.2215,-2.2345,2.1792,-1.9072,0.5413,1.9165,25.25349167,83.00963167,8.15062618,
8.2880,0.0000,0.5984,0.8296,1.0564,-1.0800,1.2877,-1.9072,0.5413,1.9165,25.25349167,83.00963167,8.15062618,
8.3310,-0.0730,0.6654,0.2501,1.0564,-1.0800,1.2877,-1.9072,0.5413,1.9165,25.25349167,83.00963167,8.15062618,
8.3470,-0.0730,0.6654,0.2501,1.0564,-1.0800,1.2877,2.1075,-0.2218,0.0881,25.25349167,83.00963167,8.15062618,
8.3490,-0.0730,0.6654,0.2501,-1.5557,1.3187,-6.2407,2.1075,-0.2218,0.0881,25.25349167,83.00963167,8.15062618,
8.3980,-0.1941,0.6273,0.4672,-1.5557,1.3187,-6.2407,2.1075,-0.2218,0.0881,25.25349167,83.00963167,8.15062618,
8.4120,-0.1941,0.6273,0.4672,-1.5557,1.3187,-6.2407,0.6819,0.0506,-0.2583,25.25349167,83.00963167,8.15062618,
8.4140,-0.1941,0.6273,0.4672,-1.0527,-2.2715,-0.3758,0.6819,0.0506,-0.2583,25.25349167,83.00963167,8.15062618,
8.4630,-0.1100,0.4713,0.4002,-1.0527,-2.2715,-0.3758,0.6819,0.0506,-0.2583,25.25349167,83.00963167,8.15062618,
8.4770,-0.1100,0.4713,0.4002,-1.0527,-2.2715,-0.3758,-1.6935,0.3254,-0.4129,25.25349167,83.00963167,8.15062618,
8.4810,-0.1100,0.4713,0.4002,0.2433,-3.0457,-2.0497,-1.6935,0.3254,-0.4129,25.25349167,83.00963167,8.15062618,
8.5300,-0.5273,0.7755,1.1698,0.2433,-3.0457,-2.0497,-1.6935,0.3254,-0.4129,25.25349167,83.00963167,8.15062618,
8.5450,-0.5273,0.7755,1.1698,0.2433,-3.0457,-2.0497,-1.2683,-0.2448,-2.1295,25.25349167,83.00963167,8.15062618,
8.5470,-0.5273,0.7755,1.1698,-0.3024,-0.2029,-1.6692,-1.2683,-0.2448,-2.1295,25.25349167,83.00963167,8.15062618,
8.5960,-0.5173,1.0207,1.6982,-0.3024,-0.2029,-1.6692,-1.2683,-0.2448,-2.1295,25.25349167,83.00963167,8.15062618,
8.6090,-0.5173,1.0207,1.6982,-0.3024,-0.2029,-1.6692,3.9074,0.8913,1.6250,25.25349167,83.00963167,8.15062618,
8.6390,-0.5173,1.0207,1.6982,-3.1172,1.1897,12.8116,3.9074,0.8913,1.6250,25.25349167,83.00963167,8.15062618,
8.6610,0.1841,0.5894,-0.3292,-3.1172,1.1897,12.8116,3.9074,0.8913,1.6250,25.25349167,83.00963167,8.15062618,
8.6750,0.1841,0.5894,-0.3292,-3.1172,1.1897,12.8116,-1.5328,0.3176,0.9791,25.25349167,83.00963167,8.15062618,
8.6770,0.1841,0.5894,-0.3292,3.7603,-1.6810,-9.2866,-1.5328,0.3176,0.9791,25.25349167,83.00963167,8.15062618,
8.7300,-0.0580,0.7515,0.8176,3.7603,-1.6810,-9.2866,-1.5328,0.3176,0.9791,25.25349167,83.00963167,8.15062618,
8.7420,-0.0580,0.7515,0.8176,3.7603,-1.6810,-9.2866,0.7400,0.3286,1.6990,25.25349167,83.00963167,8.15062618,
8.7440,-0.0580,0.7515,0.8176,-1.2681,-0.5282,3.6514,0.7400,0.3286,1.6990,25.25341500,83.00965833,8.57218361,
8.7930,-0.2031,0.6564,0.1951,-1.2681,-0.5282,3.6514,0.7400,0.3286,1.6990,25.25341500,83.00965833,8.57218361,
8.8070,-0.2031,0.6564,0.1951,-1.2681,-0.5282,3.6514,0.6970,-0.3265,-1.0422,25.25341500,83.00965833,8.57218361,
8.8090,-0.2031,0.6564,0.1951,-0.1425,-1.5578,-4.9048,0.6970,-0.3265,-1.0422,25.25341500,83.00965833,8.57218361,
8.8590,-0.3833,0.7385,0.7876,-0.1425,-1.5578,-4.9048,0.6970,-0.3265,-1.0422,25.25341500,83.00965833,8.57218361,
8.8730,-0.3833,0.7385,0.7876,-0.1425,-1.5578,-4.9048,-1.0490,-0.4974,-1.7097,25.25341500,83.00965833,8.57218361,
8.8750,-0.3833,0.7385,0.7876,-1.5354,-0.6578,2.3425,-1.0490,-0.4974,-1.7097,25.25341500,83.00965833,8.57218361,
8.9260,-0.3102,0.8145,0.5173,-1.5354,-0.6578,2.3425,-1.0490,-0.4974,-1.7097,25.25341500,83.00965833,8.57218361,
8.9470,-0.3102,0.8145,0.5173,-1.5354,-0.6578,2.3425,0.4355,-0.3004,-1.2149,25.25341500,83.00965833,8.57218361,
8.9550,-0.3102,0.8145,0.5173,1.0859,-0.3154,-0.2088,0.4355,-0.3004,-1.2149,25.25341500,83.00965833,8.57218361,
8.9910,-0.0469,0.7776,0.7045,1.0859,-0.3154,-0.2088,0.4355,-0.3004,-1.2149,25.25341500,83.00965833,8.57218361,
9.0050,-0.0469,0.7776,0.7045,1.0859,-0.3154,-0.2088,-1.1829,0.5575,1.9344,25.25341500,83.00965833,8.57218361,
9.0080,-0.0469,0.7776,0.7045,1.1879,0.0122,4.2805,-1.1829,0.5575,1.9344,25.25341500,83.00965833,8.57218361,
9.0570,-0.1140,0.6494,0.3472,1.1879,0.0122,4.2805,-1.1829,0.5575,1.9344,25.25341500,83.00965833,8.57218361,
9.0710,-0.1140,0.6494,0.3472,1.1879,0.0122,4.2805,-1.7685,0.6602,1.5637,25.25341500,83.00965833,8.57218361,
9.0730,-0.1140,0.6494,0.3472,0.4144,-0.7650,-3.1535,-1.7685,0.6602,1.5637,25.25341500,83.00965833,8.57218361,
9.1220,-0.0770,0.7835,0.9916,0.4144,-0.7650,-3.1535,-1.7685,0.6602,1.5637,25.25341500,83.00965833,8.57218361,
9.1380,-0.0770,0.7835,0.9916,0.4144,-0.7650,-3.1535,-2.2807,0.7539,0.7884,25.25341500,83.00965833,8.57218361,
9.1410,-0.0770,0.7835,0.9916,0.7324,1.0281,2.6659,-2.2807,0.7539,0.7884,25.25341500,83.00965833,8.57218361,
9.1910,-0.2081,0.8115,0.0680,0.7324,1.0281,2.6659,-2.2807,0.7539,0.7884,25.25341500,83.00965833,8.57218361,
9.2090,-0.2081,0.8115,0.0680,0.7324,1.0281,2.6659,2.2213,-0.5915,-1.3951,25.25341500,83.00965833,8.57218361,
9.2160,-0.2081,0.8115,0.0680,-0.2667,0.8943,-5.9069,2.2213,-0.5915,-1.3951,25.25341500,83.00965833,8.57218361,
9.2550,0.0350,0.6454,0.7865,-0.2667,0.8943,-5.9069,2.2213,-0.5915,-1.3951,25.25341500,83.00965833,8.57218361,
9.2720,0.0350,0.6454,0.7865,-0.2667,0.8943,-5.9069,0.4384,0.2850,1.1866,25.25341500,83.00965833,8.57218361,
9.2730,0.0350,0.6454,0.7865,1.8486,-1.3220,1.7572,0.4384,0.2850,1.1866,25.25341500,83.00965833,8.57218361,
9.3220,-0.3082,0.7605,1.1088,1.8486,-1.3220,1.7572,0.4384,0.2850,1.1866,25.25341500,83.00965833,8.57218361,
9.3370,-0.3082,0.7605,1.1088,1.8486,-1.3220,1.7572,-2.0413,0.4794,-0.4811,25.25341500,83.00965833,8.57218361,
9.3410,-0.3082,0.7605,1.1088,-1.5682,0.3940,4.2155,-2.0413,0.4794,-0.4811,25.25341500,83.00965833,8.57218361,
9.3880,0.1970,0.6835,0.1911,-1.5682,0.3940,4.2155,-2.0413,0.4794,-0.4811,25.25341500,83.00965833,8.57218361,
9.4020,0.1970,0.6835,0.1911,-1.5682,0.3940,4.2155,1.0998,-0.0058,1.4470,25.25341500,83.00965833,8.57218361,
9.4040,0.1970,0.6835,0.1911,3.0078,-0.5896,-4.5988,1.0998,-0.0058,1.4470,25.25341500,83.00965833,8.57218361,
9.4530,-0.0410,0.7214,1.0847,3.0078,-0.5896,-4.5988,1.0998,-0.0058,1.4470,25.25341500,83.00965833,8.57218361,
9.4690,-0.0410,0.7214,1.0847,3.0078,-0.5896,-4.5988,-1.4770,0.9580,1.8698,25.25341500,83.00965833,8.57218361,
9.4720,-0.0410,0.7214,1.0847,2.1699,1.1337,-6.9070,-1.4770,0.9580,1.8698,25.25341500,83.00965833,8.57218361,
9.5200,-0.2671,0.6594,0.3512,2.1699,1.1337,-6.9070,-1.4770,0.9580,1.8698,25.25341500,83.00965833,8.57218361,
9.5350,-0.2671,0.6594,0.3512,2.1699,1.1337,-6.9070,-1.0108,0.3383,-2.4289,25.25341500,83.00965833,8.57218361,
9.5370,-0.2671,0.6594,0.3512,-1.2626,0.3820,-4.1320,-1.0108,0.3383,-2.4289,25.25341500,83.00965833,8.57218361,
9.5860,-0.2332,0.7255,0.2261,-1.2626,0.3820,-4.1320,-1.0108,0.3383,-2.4289,25.25341500,83.00965833,8.57218361,
9.5990,-0.2332,0.7255,0.2261,-1.2626,0.3820,-4.1320,4.8131,-1.4319,-3.3493,25.25341500,83.00965833,8.57218361,
9.6020,-0.2332,0.7255,0.2261,-0.0479,-0.5616,-3.4684,4.8131,-1.4319,-3.3493,25.25341500,83.00965833,8.57218361,
9.6520,-0.2921,0.6474,0.4222,-0.0479,-0.5616,-3.4684,4.8131,-1.4319,-3.3493,25.25341500,83.00965833,8.57218361,
9.6660,-0.2921,0.6474,0.4222,-0.0479,-0.5616,-3.4684,1.0379,-0.1366,-0.6591,25.25341500,83.00965833,8.57218361,
9.6760,-0.2921,0.6474,0.4222,1.5245,-0.8635,-3.0858,1.0379,-0.1366,-0.6591,25.25341500,83.00965833,8.57218361,
9.7220,-0.3552,0.3852,3.2162,1.5245,-0.8635,-3.0858,1.0379,-0.1366,-0.6591,25.25341500,83.00965833,8.57218361,
9.7350,-0.3552,0.3852,3.2162,1.5245,-0.8635,-3.0858,3.1209,0.4418,1.6834,25.25341500,83.00965833,8.57218361,
9.7360,-0.3552,0.3852,3.2162,0.4267,-1.2351,0.2973,3.1209,0.4418,1.6834,25.25341500,83.00965833,8.57218361,
9.7830,0.1131,0.7985,0.6284,0.4267,-1.2351,0.2973,3.1209,0.4418,1.6834,25.25341500,83.00965833,8.57218361,
9.7970,0.1131,0.7985,0.6284,0.4267,-1.2351,0.2973,2.8195,-0.5338,0.6396,25.25333333,83.00967500,9.08587646,
9.8010,0.1131,0.7985,0.6284,2.2231,-0.3410,0.8441,2.8195,-0.5338,0.6396,25.25333333,83.00967500,9.08587646,
9.8490,-0.5384,0.7235,1.2639,2.2231,-0.3410,0.8441,2.8195,-0.5338,0.6396,25.25333333,83.00967500,9.08587646,
9.8650,-0.5384,0.7235,1.2639,2.2231,-0.3410,0.8441,-2.5797,0.7002,-0.8938,25.25333333,83.00967500,9.08587646,
9.8680,-0.5384,0.7235,1.2639,-1.3786,0.0116,0.8018,-2.5797,0.7002,-0.8938,25.25333333,83.00967500,9.08587646,
9.9140,0.1781,0.7264,0.3312,-1.3786,0.0116,0.8018,-2.5797,0.7002,-0.8938,25.25333333,83.00967500,9.08587646,
9.9330,0.1781,0.7264,0.3312,-1.3786,0.0116,0.8018,0.3137,0.1184,1.4748,25.25333333,83.00967500,9.08587646,
9.9350,0.1781,0.7264,0.3312,0.4555,-1.0657,0.3862,0.3137,0.1184,1.4748,25.25333333,83.00967500,9.08587646,
9.9890,0.0830,0.7224,0.0580,0.4555,-1.0657,0.3862,0.3137,0.1184,1.4748,25.25333333,83.00967500,9.08587646,
9.9950,0.0830,0.7224,0.0580,0.4555,-1.0657,0.3862,1.5947,-0.6044,-0.3323,25.25333333,83.00967500,9.08587646,
9.9960,0.0830,0.7224,0.0580,1.8353,-0.4533,-5.6264,1.5947,-0.6044,-0.3323,25.25333333,83.00967500,9.08587646,
10.0480,-0.3722,0.9286,1.2979,1.8353,-0.4533,-5.6264,1.5947,-0.6044,-0.3323,25.25333333,83.00967500,9.08587646,
10.0640,-0.3722,0.9286,1.2979,1.8353,-0.4533,-5.6264,-1.5199,0.5627,-0.2863,25.25333333,83.00967500,9.08587646,
10.0670,-0.3722,0.9286,1.2979,-3.8865,1.8298,8.0530,-1.5199,0.5627,-0.2863,25.25333333,83.00967500,9.08587646,
10.1130,-0.1581,0.6794,0.2131,-3.8865,1.8298,8.0530,-1.5199,0.5627,-0.2863,25.25333333,83.00967500,9.08587646,
10.1320,-0.1581,0.6794,0.2131,-3.8865,1.8298,8.0530,1.8531,-0.6919,-1.4020,25.25333333,83.00967500,9.08587646,
10.1390,-0.1581,0.6794,0.2131,2.8829,0.5399,-11.9676,1.8531,-0.6919,-1.4020,25.25333333,83.00967500,9.08587646,
10.1800,0.0230,0.7045,1.1388,2.8829,0.5399,-11.9676,1.8531,-0.6919,-1.4020,25.25333333,83.00967500,9.08587646,
10.1930,0.0230,0.7045,1.1388,2.8829,0.5399,-11.9676,-2.4798,0.6649,0.5317,25.25333333,83.00967500,9.08587646,
10.1950,0.0230,0.7045,1.1388,1.8147,-0.6039,5.0557,-2.4798,0.6649,0.5317,25.25333333,83.00967500,9.08587646,
10.2450,-0.1861,0.7785,0.3442,1.8147,-0.6039,5.0557,-2.4798,0.6649,0.5317,25.25333333,83.00967500,9.08587646,
10.2600,-0.1861,0.7785,0.3442,1.8147,-0.6039,5.0557,0.1326,-0.0008,0.4854,25.25333333,83.00967500,9.08587646,
10.2630,-0.1861,0.7785,0.3442,-0.5138,0.3692,-3.0871,0.1326,-0.0008,0.4854,25.25333333,83.00967500,9.08587646,
10.3190,0.1891,0.9506,0.0881,-0.5138,0.3692,-3.0871,0.1326,-0.0008,0.4854,25.25333333,83.00967500,9.08587646,
10.3260,0.1891,0.9506,0.0881,-0.5138,0.3692,-3.0871,-0.1127,0.1007,0.9973,25.25333333,83.00967500,9.08587646,
10.3280,0.1891,0.9506,0.0881,-5.7252,3.6758,7.8697,-0.1127,0.1007,0.9973,25.25333333,83.00967500,9.08587646,
10.3770,0.1781,0.6785,-0.9026,-5.7252,3.6758,7.8697,-0.1127,0.1007,0.9973,25.25333333,83.00967500,9.08587646,
10.3910,0.1781,0.6785,-0.9026,-5.7252,3.6758,7.8697,4.2551,-1.5664,-2.2620,25.25333333,83.00967500,9.08587646,
10.3930,0.1781,0.6785,-0.9026,3.4271,0.3190,-12.5158,4.2551,-1.5664,-2.2620,25.25333333,83.00967500,9.08587646,
10.4420,-0.2992,1.0817,1.0807,3.4271,0.3190,-12.5158,4.2551,-1.5664,-2.2620,25.25333333,83.00967500,9.08587646,
10.4570,-0.2992,1.0817,1.0807,3.4271,0.3190,-12.5158,2.9191,-0.2874,0.8546,25.25333333,83.00967500,9.08587646,
10.4590,-0.2992,1.0817,1.0807,-1.9243,1.4705,7.1574,2.9191,-0.2874,0.8546,25.25333333,83.00967500,9.08587646,
10.5090,0.3371,0.5663,0.2261,-1.9243,1.4705,7.1574,2.9191,-0.2874,0.8546,25.25333333,83.00967500,9.08587646,
10.5240,0.3371,0.5663,0.2261,-1.9243,1.4705,7.1574,-1.3952,0.5780,2.2619,25.25333333,83.00967500,9.08587646,
10.5260,0.3371,0.5663,0.2261,5.8689,0.3361,-4.2699,-1.3952,0.5780,2.2619,25.25333333,83.00967500,9.08587646,
10.5750,-0.0820,0.5384,1.9723,5.8689,0.3361,-4.2699,-1.3952,0.5780,2.2619,25.25333333,83.00967500,9.08587646,
10.5950,-0.0820,0.5384,1.9723,5.8689,0.3361,-4.2699,-5.1228,2.8844,2.8689,25.25333333,83.00967500,9.08587646,
10.6040,-0.0820,0.5384,1.9723,-2.0829,-4.2388,7.8260,-5.1228,2.8844,2.8689,25.25333333,83.00967500,9.08587646,
10.6420,-0.5003,0.9316,0.2271,-2.0829,-4.2388,7.8260,-5.1228,2.8844,2.8689,25.25333333,83.00967500,9.08587646,
10.6560,-0.5003,0.9316,0.2271,-2.0829,-4.2388,7.8260,6.0668,-3.2065,-4.1212,25.25333333,83.00967500,9.08587646,
10.6670,-0.5003,0.9316,0.2271,-4.2802,0.8276,-2.9556,6.0668,-3.2065,-4.1212,25.25333333,83.00967500,9.08587646,
10.7100,-0.1231,0.5923,0.4343,-4.2802,0.8276,-2.9556,6.0668,-3.2065,-4.1212,25.25333333,83.00967500,9.08587646,
10.7250,-0.1231,0.5923,0.4343,-4.2802,0.8276,-2.9556,-0.6820,0.0005,-0.9732,25.25333333,83.00967500,9.08587646,
10.7270,-0.1231,0.5923,0.4343,1.8164,2.0651,-11.2497,-0.6820,0.0005,-0.9732,25.25333333,83.00967500,9.08587646,
10.7730,-0.1820,0.6474,1.4190,1.8164,2.0651,-11.2497,-0.6820,0.0005,-0.9732,25.25333333,83.00967500,9.08587646,
10.7910,-0.1820,0.6474,1.4190,1.8164,2.0651,-11.2497,-1.4928,0.3450,0.3183,25.25324667,83.00968500,9.75707436,
10.7940,-0.1820,0.6474,1.4190,5.1013,-1.7335,-2.7076,-1.4928,0.3450,0.3183,25.25324667,83.00968500,9.75707436,
10.8390,-0.2441,0.9897,0.4503,5.1013,-1.7335,-2.7076,-1.4928,0.3450,0.3183,25.25324667,83.00968500,9.75707436,
10.8530,-0.2441,0.9897,0.4503,5.1013,-1.7335,-2.7076,0.7603,-0.5163,-1.2307,25.25324667,83.00968500,9.75707436,
10.8560,-0.2441,0.9897,0.4503,-4.5966,0.4731,5.6774,0.7603,-0.5163,-1.2307,25.25324667,83.00968500,9.75707436,
10.9060,0.0390,0.9246,0.4953,-4.5966,0.4731,5.6774,0.7603,-0.5163,-1.2307,25.25324667,83.00968500,9.75707436,
10.9370,0.0390,0.9246,0.4953,-4.5966,0.4731,5.6774,0.8631,0.2150,2.1613,25.25324667,83.00968500,9.75707436,
10.9420,0.0390,0.9246,0.4953,-0.8201,-0.8304,3.5753,0.8631,0.2150,2.1613,25.25324667,83.00968500,9.75707436,
10.9720,-0.1931,0.6635,0.5944,-0.8201,-0.8304,3.5753,0.8631,0.2150,2.1613,25.25324667,83.00968500,9.75707436,
10.9900,-0.1931,0.6635,0.5944,-0.8201,-0.8304,3.5753,-0.3695,0.1328,0.1691,25.25324667,83.00968500,9.75707436,
10.9980,-0.1931,0.6635,0.5944,0.9192,0.4503,-2.7432,-0.3695,0.1328,0.1691,25.25324667,83.00968500,9.75707436,
11.0370,0.0680,0.6534,0.1981,0.9192,0.4503,-2.7432,-0.3695,0.1328,0.1691,25.25324667,83.00968500,9.75707436,
11.0560,0.0680,0.6534,0.1981,0.9192,0.4503,-2.7432,1.0424,-0.2939,0.4857,25.25324667,83.00968500,9.75707436,
11.0610,0.0680,0.6534,0.1981,2.5236,0.1530,-8.0671,1.0424,-0.2939,0.4857,25.25324667,83.00968500,9.75707436,
11.1050,-0.1841,0.7876,1.2058,2.5236,0.1530,-8.0671,1.0424,-0.2939,0.4857,25.25324667,83.00968500,9.75707436,
11.1200,-0.1841,0.7876,1.2058,2.5236,0.1530,-8.0671,-1.8767,0.6412,0.1202,25.25324667,83.00968500,9.75707436,
11.1210,-0.1841,0.7876,1.2058,-1.2450,-0.1771,6.0270,-1.8767,0.6412,0.1202,25.25324667,83.00968500,9.75707436,
11.1700,0.1270,0.6564,0.5794,-1.2450,-0.1771,6.0270,-1.8767,0.6412,0.1202,25.25324667,83.00968500,9.75707436,
11.1850,0.1270,0.6564,0.5794,-1.2450,-0.1771,6.0270,-0.3149,0.2152,1.0721,25.25324667,83.00968500,9.75707436,
11.1880,0.1270,0.6564,0.5794,0.7911,-0.8309,-0.3034,-0.3149,0.2152,1.0721,25.25324667,83.00968500,9.75707436,
11.2360,-0.3132,0.8236,0.6273,0.7911,-0.8309,-0.3034,-0.3149,0.2152,1.0721,25.25324667,83.00968500,9.75707436,
11.2500,-0.3132,0.8236,0.6273,0.7911,-0.8309,-0.3034,0.5174,-0.4260,-1.4132,25.25324667,83.00968500,9.75707436,
11.2530,-0.3132,0.8236,0.6273,-2.5905,0.4123,0.0419,0.5174,-0.4260,-1.4132,25.25324667,83.00968500,9.75707436,
11.3020,0.0209,0.9556,1.0587,-2.5905,0.4123,0.0419,0.5174,-0.4260,-1.4132,25.25324667,83.00968500,9.75707436,
11.3170,0.0209,0.9556,1.0587,-2.5905,0.4123,0.0419,0.9077,-0.0641,0.9070,25.25324667,83.00968500,9.75707436,
11.3210,0.0209,0.9556,1.0587,0.6578,1.0703,5.1638,0.9077,-0.0641,0.9070,25.25324667,83.00968500,9.75707436,
11.3680,-0.1731,0.6794,0.2792,0.6578,1.0703,5.1638,0.9077,-0.0641,0.9070,25.25324667,83.00968500,9.75707436,
11.3820,-0.1731,0.6794,0.2792,0.6578,1.0703,5.1638,0.1079,-0.0635,0.0227,25.25324667,83.00968500,9.75707436,
11.3850,-0.1731,0.6794,0.2792,-1.4799,-1.4472,-2.7796,0.1079,-0.0635,0.0227,25.25324667,83.00968500,9.75707436,
11.4330,0.0340,0.9527,0.9246,-1.4799,-1.4472,-2.7796,0.1079,-0.0635,0.0227,25.25324667,83.00968500,9.75707436,
11.4510,0.0340,0.9527,0.9246,-1.4799,-1.4472,-2.7796,-0.5964,0.1593,-0.2009,25.25324667,83.00968500,9.75707436,
11.4540,0.0340,0.9527,0.9246,0.9456,1.0572,3.8411,-0.5964,0.1593,-0.2009,25.25324667,83.00968500,9.75707436,
11.5000,-0.0380,0.7455,1.2088,0.9456,1.0572,3.8411,-0.5964,0.1593,-0.2009,25.25324667,83.00968500,9.75707436,
11.5150,-0.0380,0.7455,1.2088,0.9456,1.0572,3.8411,-2.3223,1.3083,1.4577,25.25324667,83.00968500,9.75707436,
11.5170,-0.0380,0.7455,1.2088,-4.1897,-1.2524,8.3790,-2.3223,1.3083,1.4577,25.25324667,83.00968500,9.75707436,
11.5650,-0.0310,0.6785,-0.3042,-4.1897,-1.2524,8.3790,-2.3223,1.3083,1.4577,25.25324667,83.00968500,9.75707436,
11.5800,-0.0310,0.6785,-0.3042,-4.1897,-1.2524,8.3790,0.6697,-0.4310,-1.6344,25.25324667,83.00968500,9.75707436,
11.5830,-0.0310,0.6785,-0.3042,0.2613,-0.8361,-9.2912,0.6697,-0.4310,-1.6344,25.25324667,83.00968500,9.75707436,
11.6320,-0.7185,0.8155,1.9013,0.2613,-0.8361,-9.2912,0.6697,-0.4310,-1.6344,25.25324667,83.00968500,9.75707436,
11.6450,-0.7185,0.8155,1.9013,0.2613,-0.8361,-9.2912,-2.1948,-0.0340,-2.4855,25.25324667,83.00968500,9.75707436,
11.6460,-0.7185,0.8155,1.9013,-5.6272,0.1956,12.8558,-2.1948,-0.0340,-2.4855,25.25324667,83.00968500,9.75707436,
11.7160,0.0519,0.8646,-0.3202,-5.6272,0.1956,12.8558,-2.1948,-0.0340,-2.4855,25.25324667,83.00968500,9.75707436,
11.7180,0.0519,0.8646,-0.3202,-5.6272,0.1956,12.8558,1.8179,-0.3164,0.3495,25.25324667,83.00968500,9.75707436,
11.7200,0.0519,0.8646,-0.3202,-1.2777,1.1347,3.5746,1.8179,-0.3164,0.3495,25.25324667,83.00968500,9.75707436,
11.7620,-0.1220,0.6804,0.1460,-1.2777,1.1347,3.5746,1.8179,-0.3164,0.3495,25.25324667,83.00968500,9.75707436,
11.7770,-0.1220,0.6804,0.1460,-1.2777,1.1347,3.5746,-1.7230,0.7667,1.0595,25.25315500,83.00968667,10.19973564,
11.7800,-0.1220,0.6804,0.1460,-0.0399,-0.6220,-5.0249,-1.7230,0.7667,1.0595,25.25315500,83.00968667,10.19973564,
11.8290,-0.2792,1.0607,0.7965,-0.0399,-0.6220,-5.0249,-1.7230,0.7667,1.0595,25.25315500,83.00968667,10.19973564,
11.8430,-0.2792,1.0607,0.7965,-0.0399,-0.6220,-5.0249,1.9497,-0.7093,-1.3203,25.25315500,83.00968667,10.19973564,
11.8450,-0.2792,1.0607,0.7965,-1.0421,2.1644,2.7516,1.9497,-0.7093,-1.3203,25.25315500,83.00968667,10.19973564,
11.8960,-0.1220,0.5634,0.7185,-1.0421,2.1644,2.7516,1.9497,-0.7093,-1.3203,25.25315500,83.00968667,10.19973564,
11.9130,-0.1220,0.5634,0.7185,-1.0421,2.1644,2.7516,-4.1822,1.2831,0.8609,25.25315500,83.00968667,10.19973564,
11.9150,-0.1220,0.5634,0.7185,-0.4633,-1.0034,-6.6209,-4.1822,1.2831,0.8609,25.25315500,83.00968667,10.19973564,
11.9620,0.1481,0.7665,-0.4933,-0.4633,-1.0034,-6.6209,-4.1822,1.2831,0.8609,25.25315500,83.00968667,10.19973564,
11.9760,0.1481,0.7665,-0.4933,-0.4633,-1.0034,-6.6209,3.8755,-0.8730,-0.6426,25.25315500,83.00968667,10.19973564,
11.9780,0.1481,0.7665,-0.4933,0.9897,2.5592,-2.2554,3.8755,-0.8730,-0.6426,25.25315500,83.00968667,10.19973564,
12.0280,0.3652,0.2432,-0.2571,0.9897,2.5592,-2.2554,3.8755,-0.8730,-0.6426,25.25315500,83.00968667,10.19973564,
12.0420,0.3652,0.2432,-0.2571,0.9897,2.5592,-2.2554,0.8089,-0.4989,-1.3518,25.25315500,83.00968667,10.19973564,
12.0440,0.3652,0.2432,-0.2571,6.0654,-5.3053,-8.0754,0.8089,-0.4989,-1.3518,25.25315500,83.00968667,10.19973564,
12.0930,-0.6104,1.0938,1.9343,6.0654,-5.3053,-8.0754,0.8089,-0.4989,-1.3518,25.25315500,83.00968667,10.19973564,
12.1110,-0.6104,1.0938,1.9343,6.0654,-5.3053,-8.0754,2.0579,0.1316,1.6221,25.25315500,83.00968667,10.19973564,
12.1130,-0.6104,1.0938,1.9343,-4.7834,1.8785,14.8850,2.0579,0.1316,1.6221,25.25315500,83.00968667,10.19973564,
12.1600,0.1420,0.6454,-0.7495,-4.7834,1.8785,14.8850,2.0579,0.1316,1.6221,25.25315500,83.00968667,10.19973564,
12.1740,0.1420,0.6454,-0.7495,-4.7834,1.8785,14.8850,2.1477,-0.3640,-0.0851,25.25315500,83.00968667,10.19973564,
12.1770,0.1420,0.6454,-0.7495,2.0697,-1.0323,-9.4866,2.1477,-0.3640,-0.0851,25.25315500,83.00968667,10.19973564,
12.2250,-0.5234,0.9186,0.8276,2.0697,-1.0323,-9.4866,2.1477,-0.3640,-0.0851,25.25315500,83.00968667,10.19973564,
12.2390,-0.5234,0.9186,0.8276,2.0697,-1.0323,-9.4866,-1.0229,-0.2059,-0.8183,25.25315500,83.00968667,10.19973564,
12.2430,-0.5234,0.9186,0.8276,-3.0434,0.6612,3.3946,-1.0229,-0.2059,-0.8183,25.25315500,83.00968667,10.19973564,
12.2920,-0.1070,0.6694,1.0787,-3.0434,0.6612,3.3946,-1.0229,-0.2059,-0.8183,25.25315500,83.00968667,10.19973564,
12.3070,-0.1070,0.6694,1.0787,-3.0434,0.6612,3.3946,-3.8023,0.4952,0.5791,25.25315500,83.00968667,10.19973564,
12.3110,-0.1070,0.6694,1.0787,1.2979,-0.4472,4.1244,-3.8023,0.4952,0.5791,25.25315500,83.00968667,10.19973564,
12.3580,-0.3052,0.8856,0.4522,1.2979,-0.4472,4.1244,-3.8023,0.4952,0.5791,25.25315500,83.00968667,10.19973564,
12.3720,-0.3052,0.8856,0.4522,1.2979,-0.4472,4.1244,0.6463,-0.2855,-0.0159,25.25315500,83.00968667,10.19973564,
12.3740,-0.3052,0.8856,0.4522,-0.9473,1.6024,-2.0416,0.6463,-0.2855,-0.0159,25.25315500,83.00968667,10.19973564,
12.4230,0.1551,1.0737,0.1731,-0.9473,1.6024,-2.0416,0.6463,-0.2855,-0.0159,25.25315500,83.00968667,10.19973564,
12.4390,0.1551,1.0737,0.1731,-0.9473,1.6024,-2.0416,0.5994,-0.0346,0.6186,25.25315500,83.00968667,10.19973564,
12.4420,0.1551,1.0737,0.1731,-4.7109,-2.6703,12.2323,0.5994,-0.0346,0.6186,25.25315500,83.00968667,10.19973564,
12.4890,-0.2391,0.7945,0.4293,-4.7109,-2.6703,12.2323,0.5994,-0.0346,0.6186,25.25315500,83.00968667,10.19973564,
12.5060,-0.2391,0.7945,0.4293,-4.7109,-2.6703,12.2323,7.2085,-0.8348,1.6260,25.25315500,83.00968667,10.19973564,
12.5140,-0.2391,0.7945,0.4293,-1.5544,-1.5840,1.4238,7.2085,-0.8348,1.6260,25.25315500,83.00968667,10.19973564,
12.5560,-0.2642,1.0988,1.1388,-1.5544,-1.5840,1.4238,7.2085,-0.8348,1.6260,25.25315500,83.00968667,10.19973564,
12.5700,-0.2642,1.0988,1.1388,-1.5544,-1.5840,1.4238,1.1393,0.1293,0.2062,25.25315500,83.00968667,10.19973564,
12.5730,-0.2642,1.0988,1.1388,-1.0064,2.7636,5.7204,1.1393,0.1293,0.2062,25.25315500,83.00968667,10.19973564,
12.6220,0.2451,0.4753,0.3722,-1.0064,2.7636,5.7204,1.1393,0.1293,0.2062,25.25315500,83.00968667,10.19973564,
12.6400,0.2451,0.4753,0.3722,-1.0064,2.7636,5.7204,-0.1583,0.7439,2.5207,25.25315500,83.00968667,10.19973564,
12.6480,0.2451,0.4753,0.3722,3.6982,-3.3889,-1.8045,-0.1583,0.7439,2.5207,25.25315500,83.00968667,10.19973564,
12.6880,-0.6814,0.8806,1.6211,3.6982,-3.3889,-1.8045,-0.1583,0.7439,2.5207,25.25315500,83.00968667,10.19973564,
12.7070,-0.6814,0.8806,1.6211,3.6982,-3.3889,-1.8045,-2.0620,-0.6800,-3.0773,25.25315500,83.00968667,10.19973564,
12.7140,-0.6814,0.8806,1.6211,-4.2102,0.9910,10.2547,-2.0620,-0.6800,-3.0773,25.25315500,83.00968667,10.19973564,
12.7560,0.0280,1.0587,-0.3792,-4.2102,0.9910,10.2547,-2.0620,-0.6800,-3.0773,25.25315500,83.00968667,10.19973564,
12.7670,0.0280,1.0587,-0.3792,-4.2102,0.9910,10.2547,2.7575,0.1166,1.5973,25.25315500,83.00968667,10.19973564,
12.7690,0.0280,1.0587,-0.3792,2.2109,2.2970,-8.9272,2.7575,0.1166,1.5973,25.25315500,83.00968667,10.19973564,
12.8190,0.1520,0.6014,0.3292,2.2109,2.2970,-8.9272,2.7575,0.1166,1.5973,25.25315500,83.00968667,10.19973564,
12.8330,0.1520,0.6014,0.3292,2.2109,2.2970,-8.9272,-0.1993,0.2870,1.1925,25.25306500,83.00970500,10.04737759,
12.8350,0.1520,0.6014,0.3292,1.7645,-0.2581,-3.8986,-0.1993,0.2870,1.1925,25.25306500,83.00970500,10.04737759,
12.8840,-0.1670,0.8226,1.1278,1.7645,-0.2581,-3.8986,-0.1993,0.2870,1.1925,25.25306500,83.00970500,10.04737759,
12.9040,-0.1670,0.8226,1.1278,1.7645,-0.2581,-3.8986,-2.2558,0.6675,0.6977,25.25306500,83.00970500,10.04737759,
12.9120,-0.1670,0.8226,1.1278,-2.4114,0.0483,5.2267,-2.2558,0.6675,0.6977,25.25306500,83.00970500,10.04737759,
12.9510,-0.3221,0.8355,0.0350,-2.4114,0.0483,5.2267,-2.2558,0.6675,0.6977,25.25306500,83.00970500,10.04737759,
12.9650,-0.3221,0.8355,0.0350,-2.4114,0.0483,5.2267,3.8867,-1.0405,-2.5940,25.25306500,83.00970500,10.04737759,
12.9680,-0.3221,0.8355,0.0350,-0.7493,-0.2072,-4.1174,3.8867,-1.0405,-2.5940,25.25306500,83.00970500,10.04737759,
13.0170,-0.1310,0.8396,0.9566,-0.7493,-0.2072,-4.1174,3.8867,-1.0405,-2.5940,25.25306500,83.00970500,10.04737759,
13.0320,-0.1310,0.8396,0.9566,-0.7493,-0.2072,-4.1174,-1.2051,-0.0111,0.2274,25.25306500,83.00970500,10.04737759,
13.0340,-0.1310,0.8396,0.9566,1.2987,0.0177,4.6755,-1.2051,-0.0111,0.2274,25.25306500,83.00970500,10.04737759,
13.0830,-0.2261,0.7414,0.5723,1.2987,0.0177,4.6755,-1.2051,-0.0111,0.2274,25.25306500,83.00970500,10.04737759,
13.1110,-0.2261,0.7414,0.5723,1.2987,0.0177,4.6755,-1.5076,0.3313,1.0965,25.25306500,83.00970500,10.04737759,
13.1140,-0.2261,0.7414,0.5723,0.1662,-2.8988,-0.7033,-1.5076,0.3313,1.0965,25.25306500,83.00970500,10.04737759,
13.1490,-0.8765,0.9916,1.9043,0.1662,-2.8988,-0.7033,-1.5076,0.3313,1.0965,25.25306500,83.00970500,10.04737759,
13.1630,-0.8765,0.9916,1.9043,0.1662,-2.8988,-0.7033,-2.0755,-0.7382,-2.6011,25.25306500,83.00970500,10.04737759,
13.1650,-0.8765,0.9916,1.9043,-6.1566,2.1272,12.9501,-2.0755,-0.7382,-2.6011,25.25306500,83.00970500,10.04737759,
13.2150,0.6223,0.7615,-1.1188,-6.1566,2.1272,12.9501,-2.0755,-0.7382,-2.6011,25.25306500,83.00970500,10.04737759,
13.2340,0.6223,0.7615,-1.1188,-6.1566,2.1272,12.9501,2.3502,0.3820,2.9942,25.25306500,83.00970500,10.04737759,
13.2430,0.6223,0.7615,-1.1188,8.1260,-0.0515,-16.9297,2.3502,0.3820,2.9942,25.25306500,83.00970500,10.04737759,
13.2820,-0.2832,0.8526,1.4840,8.1260,-0.0515,-16.9297,2.3502,0.3820,2.9942,25.25306500,83.00970500,10.04737759,
13.2970,-0.2832,0.8526,1.4840,8.1260,-0.0515,-16.9297,-3.1402,0.6378,0.3815,25.25306500,83.00970500,10.04737759,
13.3010,-0.2832,0.8526,1.4840,-3.9793,0.2821,3.4599,-3.1402,0.6378,0.3815,25.25306500,83.00970500,10.04737759,
13.3470,-0.3733,0.8415,0.9496,-3.9793,0.2821,3.4599,-3.1402,0.6378,0.3815,25.25306500,83.00970500,10.04737759,
13.3610,-0.3733,0.8415,0.9496,-3.9793,0.2821,3.4599,1.0705,-0.0727,0.0708,25.25306500,83.00970500,10.04737759,
13.3650,-0.3733,0.8415,0.9496,-1.4530,0.7840,3.3394,1.0705,-0.0727,0.0708,25.25306500,83.00970500,10.04737759,
13.4130,-0.7085,0.9396,1.2279,-1.4530,0.7840,3.3394,1.0705,-0.0727,0.0708,25.25306500,83.00970500,10.04737759,
13.4270,-0.7085,0.9396,1.2279,-1.4530,0.7840,3.3394,-1.2806,0.1180,-0.3452,25.25306500,83.00970500,10.04737759,
13.4310,-0.7085,0.9396,1.2279,-4.8804,1.8243,5.9182,-1.2806,0.1180,-0.3452,25.25306500,83.00970500,10.04737759,
13.4790,-0.4433,1.0878,-0.2211,-4.8804,1.8243,5.9182,-1.2806,0.1180,-0.3452,25.25306500,83.00970500,10.04737759,
13.4990,-0.4433,1.0878,-0.2211,-4.8804,1.8243,5.9182,2.6300,-0.6070,-2.2289,25.25306500,83.00970500,10.04737759,
13.5050,-0.4433,1.0878,-0.2211,-1.7773,1.6914,-0.0401,2.6300,-0.6070,-2.2289,25.25306500,83.00970500,10.04737759,
13.5460,-0.0380,0.7635,0.0050,-1.7773,1.6914,-0.0401,2.6300,-0.6070,-2.2289,25.25306500,83.00970500,10.04737759,
13.5630,-0.0380,0.7635,0.0050,-1.7773,1.6914,-0.0401,1.2720,0.5592,1.7445,25.25306500,83.00970500,10.04737759,
13.5690,-0.0380,0.7635,0.0050,4.9955,-2.4341,-2.1595,1.2720,0.5592,1.7445,25.25306500,83.00970500,10.04737759,
13.6120,-0.4412,0.9477,1.2138,4.9955,-2.4341,-2.1595,1.2720,0.5592,1.7445,25.25306500,83.00970500,10.04737759,
13.6480,-0.4412,0.9477,1.2138,4.9955,-2.4341,-2.1595,-1.0929,0.1781,0.4737,25.25306500,83.00970500,10.04737759,
13.6520,-0.4412,0.9477,1.2138,-2.2668,1.2763,6.6260,-1.0929,0.1781,0.4737,25.25306500,83.00970500,10.04737759,
13.6860,-0.0920,0.7374,-0.1770,-2.2668,1.2763,6.6260,-1.0929,0.1781,0.4737,25.25306500,83.00970500,10.04737759,
13.7150,-0.0920,0.7374,-0.1770,-2.2668,1.2763,6.6260,-1.3444,0.6013,2.0648,25.25306500,83.00970500,10.04737759,
13.7170,-0.0920,0.7374,-0.1770,-2.5815,0.9709,-4.6515,-1.3444,0.6013,2.0648,25.25306500,83.00970500,10.04737759,
13.7470,-0.6194,1.0166,1.3899,-2.5815,0.9709,-4.6515,-1.3444,0.6013,2.0648,25.25306500,83.00970500,10.04737759,
13.7590,-0.6194,1.0166,1.3899,-2.5815,0.9709,-4.6515,-2.3755,-0.7066,-2.3814,25.25306500,83.00970500,10.04737759,
13.7600,-0.6194,1.0166,1.3899,-3.7378,-2.7875,16.1154,-2.3755,-0.7066,-2.3814,25.25306500,83.00970500,10.04737759,
13.8090,-0.0550,0.7045,0.3532,-3.7378,-2.7875,16.1154,-2.3755,-0.7066,-2.3814,25.25306500,83.00970500,10.04737759,
13.8230,-0.0550,0.7045,0.3532,-3.7378,-2.7875,16.1154,3.3752,0.3110,2.1516,25.25295500,83.00971000,10.76798916,
13.8250,-0.0550,0.7045,0.3532,1.3850,-0.9902,-2.0298,3.3752,0.3110,2.1516,25.25295500,83.00971000,10.76798916,
13.8740,-0.9266,0.9787,1.6151,1.3850,-0.9902,-2.0298,3.3752,0.3110,2.1516,25.25295500,83.00971000,10.76798916,
13.8940,-0.9266,0.9787,1.6151,1.3850,-0.9902,-2.0298,-2.5338,-0.9407,-2.5378,25.25295500,83.00971000,10.76798916,
13.9020,-0.9266,0.9787,1.6151,-1.8533,1.6136,-5.8841,-2.5338,-0.9407,-2.5378,25.25295500,83.00971000,10.76798916,
13.9420,0.0860,0.7485,-0.4133,-1.8533,1.6136,-5.8841,-2.5338,-0.9407,-2.5378,25.25295500,83.00971000,10.76798916,
13.9550,0.0860,0.7485,-0.4133,-1.8533,1.6136,-5.8841,2.6658,0.9427,1.9811,25.25295500,83.00971000,10.76798916,
13.9580,0.0860,0.7485,-0.4133,1.0051,0.3061,-2.1566,2.6658,0.9427,1.9811,25.25295500,83.00971000,10.76798916,
14.0070,-0.5634,0.9156,0.6724,1.0051,0.3061,-2.1566,2.6658,0.9427,1.9811,25.25295500,83.00971000,10.76798916,
14.0210,-0.5634,0.9156,0.6724,1.0051,0.3061,-2.1566,-0.0950,-0.1111,-0.3622,25.25295500,83.00971000,10.76798916,
14.0240,-0.5634,0.9156,0.6724,-1.0774,1.6696,-0.5729,-0.0950,-0.1111,-0.3622,25.25295500,83.00971000,10.76798916,
14.0730,-0.3532,0.7574,0.4412,-1.0774,1.6696,-0.5729,-0.0950,-0.1111,-0.3622,25.25295500,83.00971000,10.76798916,
14.1000,-0.3532,0.7574,0.4412,-1.0774,1.6696,-0.5729,0.0258,-0.4633,-1.2546,25.25295500,83.00971000,10.76798916,
14.1040,-0.3532,0.7574,0.4412,1.3825,-1.9614,-4.1416,0.0258,-0.4633,-1.2546,25.25295500,83.00971000,10.76798916,
14.1410,-0.0059,0.4672,1.0337,1.3825,-1.9614,-4.1416,0.0258,-0.4633,-1.2546,25.25295500,83.00971000,10.76798916,
14.1530,-0.0059,0.4672,1.0337,1.3825,-1.9614,-4.1416,-1.6614,0.4876,1.8537,25.25295500,83.00971000,10.76798916,
14.1550,-0.0059,0.4672,1.0337,0.3715,-0.2139,6.1265,-1.6614,0.4876,1.8537,25.25295500,83.00971000,10.76798916,
14.2060,-0.2061,0.6904,0.4453,0.3715,-0.2139,6.1265,-1.6614,0.4876,1.8537,25.25295500,83.00971000,10.76798916,
14.2250,-0.2061,0.6904,0.4453,0.3715,-0.2139,6.1265,-1.0176,-0.3461,-1.1124,25.25295500,83.00971000,10.76798916,
14.2280,-0.2061,0.6904,0.4453,-7.8440,1.3198,0.1579,-1.0176,-0.3461,-1.1124,25.25295500,83.00971000,10.76798916,
14.2710,-0.2361,0.8065,0.3042,-7.8440,1.3198,0.1579,-1.0176,-0.3461,-1.1124,25.25295500,83.00971000,10.76798916,
14.2880,-0.2361,0.8065,0.3042,-7.8440,1.3198,0.1579,3.2744,0.1756,-2.1376,25.25295500,83.00971000,10.76798916,
14.2920,-0.2361,0.8065,0.3042,1.6660,0.6957,-2.3446,3.2744,0.1756,-2.1376,25.25295500,83.00971000,10.76798916,
14.3370,-0.3783,0.7255,0.8226,1.6660,0.6957,-2.3446,3.2744,0.1756,-2.1376,25.25295500,83.00971000,10.76798916,
14.3520,-0.3783,0.7255,0.8226,1.6660,0.6957,-2.3446,0.4361,0.3032,0.4596,25.25295500,83.00971000,10.76798916,
14.3540,-0.3783,0.7255,0.8226,0.2542,-0.4012,3.1568,0.4361,0.3032,0.4596,25.25295500,83.00971000,10.76798916,
14.4030,-0.5193,0.8576,1.3149,0.2542,-0.4012,3.1568,0.4361,0.3032,0.4596,25.25295500,83.00971000,10.76798916,
14.4190,-0.5193,0.8576,1.3149,0.2542,-0.4012,3.1568,-2.4507,-0.2591,0.5986,25.25295500,83.00971000,10.76798916,
14.4230,-0.5193,0.8576,1.3149,-2.0686,-0.7287,2.5254,-2.4507,-0.2591,0.5986,25.25295500,83.00971000,10.76798916,
14.4700,-0.0960,0.7695,0.1560,-2.0686,-0.7287,2.5254,-2.4507,-0.2591,0.5986,25.25295500,83.00971000,10.76798916,
14.4860,-0.0960,0.7695,0.1560,-2.0686,-0.7287,2.5254,2.5065,0.7947,0.9963,25.25295500,83.00971000,10.76798916,
14.4880,-0.0960,0.7695,0.1560,2.3767,-0.2916,-3.3498,2.5065,0.7947,0.9963,25.25295500,83.00971000,10.76798916,
14.5350,-0.4923,0.6735,1.3659,2.3767,-0.2916,-3.3498,2.5065,0.7947,0.9963,25.25295500,83.00971000,10.76798916,
14.5510,-0.4923,0.6735,1.3659,2.3767,-0.2916,-3.3498,-2.7425,-1.3906,-1.6135,25.25295500,83.00971000,10.76798916,
14.5540,-0.4923,0.6735,1.3659,-1.1807,-0.0932,7.2147,-2.7425,-1.3906,-1.6135,25.25295500,83.00971000,10.76798916,
14.6020,0.0569,0.5703,-0.3402,-1.1807,-0.0932,7.2147,-2.7425,-1.3906,-1.6135,25.25295500,83.00971000,10.76798916,
14.6180,0.0569,0.5703,-0.3402,-1.1807,-0.0932,7.2147,3.0113,1.1794,2.5657,25.25295500,83.00971000,10.76798916,
14.6340,0.0569,0.5703,-0.3402,-1.3384,0.0434,-2.1095,3.0113,1.1794,2.5657,25.25295500,83.00971000,10.76798916,
14.6670,-1.0227,1.2808,1.4480,-1.3384,0.0434,-2.1095,3.0113,1.1794,2.5657,25.25295500,83.00971000,10.76798916,
14.6870,-1.0227,1.2808,1.4480,-1.3384,0.0434,-2.1095,-0.7459,-1.1434,-2.6638,25.25295500,83.00971000,10.76798916,
14.6950,-1.0227,1.2808,1.4480,-2.1850,2.8071,1.9002,-0.7459,-1.1434,-2.6638,25.25295500,83.00971000,10.76798916,
14.7360,0.3442,0.3432,-0.5323,-2.1850,2.8071,1.9002,-0.7459,-1.1434,-2.6638,25.25295500,83.00971000,10.76798916,
14.7480,0.3442,0.3432,-0.5323,-2.1850,2.8071,1.9002,1.0636,0.4667,0.4753,25.25295500,83.00971000,10.76798916,
14.7500,0.3442,0.3432,-0.5323,7.3342,-4.1509,-10.1173,1.0636,0.4667,0.4753,25.25295500,83.00971000,10.76798916,
14.7990,-0.6895,1.0387,1.3219,7.3342,-4.1509,-10.1173,1.0636,0.4667,0.4753,25.25295500,83.00971000,10.76798916,
14.8150,-0.6895,1.0387,1.3219,7.3342,-4.1509,-10.1173,-0.5821,0.8419,2.2558,25.25285167,83.00971500,10.34951973,
14.8180,-0.6895,1.0387,1.3219,-4.3012,1.6548,8.7753,-0.5821,0.8419,2.2558,25.25285167,83.00971500,10.34951973,
14.8640,0.2281,0.3302,-0.6735,-4.3012,1.6548,8.7753,-0.5821,0.8419,2.2558,25.25285167,83.00971500,10.34951973,
14.8830,0.2281,0.3302,-0.6735,-4.3012,1.6548,8.7753,0.8451,0.4318,0.2945,25.25285167,83.00971500,10.34951973,
14.8850,0.2281,0.3302,-0.6735,5.1494,-1.3673,-18.4873,0.8451,0.4318,0.2945,25.25285167,83.00971500,10.34951973,
14.9310,-0.9897,0.7715,1.7562,5.1494,-1.3673,-18.4873,0.8451,0.4318,0.2945,25.25285167,83.00971500,10.34951973,
14.9450,-0.9897,0.7715,1.7562,5.1494,-1.3673,-18.4873,-2.1108,-2.6271,-4.1141,25.25285167,83.00971500,10.34951973,
14.9470,-0.9897,0.7715,1.7562,-5.2108,0.6523,11.8923,-2.1108,-2.6271,-4.1141,25.25285167,83.00971500,10.34951973,
14.9970,-0.1090,0.4893,-0.1731,-5.2108,0.6523,11.8923,-2.1108,-2.6271,-4.1141,25.25285167,83.00971500,10.34951973,
15.0130,-0.1090,0.4893,-0.1731,-5.2108,0.6523,11.8923,4.2587,2.4698,1.7651,25.25285167,83.00971500,10.34951973,
15.0180,-0.1090,0.4893,-0.1731,3.1990,-3.3880,-5.0105,4.2587,2.4698,1.7651,25.25285167,83.00971500,10.34951973,
15.0630,-0.9577,1.0807,0.9327,3.1990,-3.3880,-5.0105,4.2587,2.4698,1.7651,25.25285167,83.00971500,10.34951973,
15.0820,-0.9577,1.0807,0.9327,3.1990,-3.3880,-5.0105,-1.9080,-1.3260,-2.0427,25.25285167,83.00971500,10.34951973,
15.0900,-0.9577,1.0807,0.9327,-6.1974,4.4241,-1.0446,-1.9080,-1.3260,-2.0427,25.25285167,83.00971500,10.34951973,
15.1290,-0.5313,0.7095,0.2432,-6.1974,4.4241,-1.0446,-1.9080,-1.3260,-2.0427,25.25285167,83.00971500,10.34951973,
15.1440,-0.5313,0.7095,0.2432,-6.1974,4.4241,-1.0446,1.6160,0.6894,-0.4928,25.25285167,83.00971500,10.34951973,
15.1460,-0.5313,0.7095,0.2432,2.2837,-1.6203,-3.2741,1.6160,0.6894,-0.4928,25.25285167,83.00971500,10.34951973,
15.1950,-0.1260,0.9266,0.1481,2.2837,-1.6203,-3.2741,1.6160,0.6894,-0.4928,25.25285167,83.00971500,10.34951973,
15.2100,-0.1260,0.9266,0.1481,2.2837,-1.6203,-3.2741,1.2769,1.9386,3.4160,25.25285167,83.00971500,10.34951973,
15.2140,-0.1260,0.9266,0.1481,2.9231,0.7842,-1.7162,1.2769,1.9386,3.4160,25.25285167,83.00971500,10.34951973,
15.2620,-0.0380,0.6354,0.3182,2.9231,0.7842,-1.7162,1.2769,1.9386,3.4160,25.25285167,83.00971500,10.34951973,
15.2770,-0.0380,0.6354,0.3182,2.9231,0.7842,-1.7162,-1.7224,-0.1645,1.2727,25.25285167,83.00971500,10.34951973,
15.2840,-0.0380,0.6354,0.3182,6.2940,-1.9882,-10.2829,-1.7224,-0.1645,1.2727,25.25285167,83.00971500,10.34951973,
15.3280,-0.8336,0.9316,0.6854,6.2940,-1.9882,-10.2829,-1.7224,-0.1645,1.2727,25.25285167,83.00971500,10.34951973,
15.3420,-0.8336,0.9316,0.6854,6.2940,-1.9882,-10.2829,1.2666,-0.1992,-1.1007,25.25285167,83.00971500,10.34951973,
15.3440,-0.8336,0.9316,0.6854,-4.4709,0.1118,0.9048,1.2666,-0.1992,-1.1007,25.25285167,83.00971500,10.34951973,
15.3930,-0.5323,0.7355,0.7355,-4.4709,0.1118,0.9048,1.2666,-0.1992,-1.1007,25.25285167,83.00971500,10.34951973,
15.4080,-0.5323,0.7355,0.7355,-4.4709,0.1118,0.9048,-1.3010,-0.6937,-0.6477,25.25285167,83.00971500,10.34951973,
15.4120,-0.5323,0.7355,0.7355,-1.3821,-0.5659,2.6234,-1.3010,-0.6937,-0.6477,25.25285167,83.00971500,10.34951973,
15.4600,-0.6685,0.8365,0.5103,-1.3821,-0.5659,2.6234,-1.3010,-0.6937,-0.6477,25.25285167,83.00971500,10.34951973,
15.4760,-0.6685,0.8365,0.5103,-1.3821,-0.5659,2.6234,-0.9352,-0.2525,0.1787,25.25285167,83.00971500,10.34951973,
15.4790,-0.6685,0.8365,0.5103,-3.0677,-0.1654,1.5835,-0.9352,-0.2525,0.1787,25.25285167,83.00971500,10.34951973,
15.5260,-0.2871,0.9206,-0.0560,-3.0677,-0.1654,1.5835,-0.9352,-0.2525,0.1787,25.25285167,83.00971500,10.34951973,
15.5400,-0.2871,0.9206,-0.0560,-3.0677,-0.1654,1.5835,2.2092,0.7661,0.1765,25.25285167,83.00971500,10.34951973,
15.5430,-0.2871,0.9206,-0.0560,0.9308,1.2235,-5.1662,2.2092,0.7661,0.1765,25.25285167,83.00971500,10.34951973,
15.5920,0.2201,0.6644,-0.4122,0.9308,1.2235,-5.1662,2.2092,0.7661,0.1765,25.25285167,83.00971500,10.34951973,
15.6060,0.2201,0.6644,-0.4122,0.9308,1.2235,-5.1662,-0.0421,0.1759,0.5991,25.25285167,83.00971500,10.34951973,
15.6080,0.2201,0.6644,-0.4122,6.2526,-0.7847,-9.1546,-0.0421,0.1759,0.5991,25.25285167,83.00971500,10.34951973,
15.6580,-0.5363,0.7345,0.7235,6.2526,-0.7847,-9.1546,-0.0421,0.1759,0.5991,25.25285167,83.00971500,10.34951973,
15.6780,-0.5363,0.7345,0.7235,6.2526,-0.7847,-9.1546,-0.3477,-0.3397,-0.5479,25.25285167,83.00971500,10.34951973,
15.6850,-0.5363,0.7345,0.7235,4.2053,-1.7285,-4.9284,-0.3477,-0.3397,-0.5479,25.25285167,83.00971500,10.34951973,
15.7240,-0.7785,0.9487,0.7414,4.2053,-1.7285,-4.9284,-0.3477,-0.3397,-0.5479,25.25285167,83.00971500,10.34951973,
15.7400,-0.7785,0.9487,0.7414,4.2053,-1.7285,-4.9284,2.3691,0.8313,0.4364,25.25285167,83.00971500,10.34951973,
15.7420,-0.7785,0.9487,0.7414,-3.9797,0.7405,4.1628,2.3691,0.8313,0.4364,25.25285167,83.00971500,10.34951973,
15.7890,-0.4733,0.7845,0.5984,-3.9797,0.7405,4.1628,2.3691,0.8313,0.4364,25.25285167,83.00971500,10.34951973,
15.8030,-0.4733,0.7845,0.5984,-3.9797,0.7405,4.1628,-0.7239,-0.5049,-0.6774,25.25275667,83.00973333,9.50177193,
15.8050,-0.4733,0.7845,0.5984,-0.7723,-0.3136,-3.0303,-0.7239,-0.5049,-0.6774,25.25275667,83.00973333,9.50177193,
15.8550,-0.2501,0.7785,0.7465,-0.7723,-0.3136,-3.0303,-0.7239,-0.5049,-0.6774,25.25275667,83.00973333,9.50177193,
15.8740,-0.2501,0.7785,0.7465,-0.7723,-0.3136,-3.0303,0.3256,0.4972,1.2585,25.25275667,83.00973333,9.50177193,
15.8810,-0.2501,0.7785,0.7465,-2.9033,-0.1672,8.0372,0.3256,0.4972,1.2585,25.25275667,83.00973333,9.50177193,
15.9210,-0.0340,0.7205,0.2251,-2.9033,-0.1672,8.0372,0.3256,0.4972,1.2585,25.25275667,83.00973333,9.50177193,
15.9360,-0.0340,0.7205,0.2251,-2.9033,-0.1672,8.0372,-0.9101,-0.3856,-0.0788,25.25275667,83.00973333,9.50177193,
15.9380,-0.0340,0.7205,0.2251,0.4284,0.9412,-1.7964,-0.9101,-0.3856,-0.0788,25.25275667,83.00973333,9.50177193,
15.9880,-0.2161,0.6504,0.8586,0.4284,0.9412,-1.7964,-0.9101,-0.3856,-0.0788,25.25275667,83.00973333,9.50177193,
16.0020,-0.2161,0.6504,0.8586,0.4284,0.9412,-1.7964,-1.0631,-1.2223,-1.8436,25.25275667,83.00973333,9.50177193,
16.0040,-0.2161,0.6504,0.8586,2.0545,-0.2375,2.4950,-1.0631,-1.2223,-1.8436,25.25275667,83.00973333,9.50177193,
16.0530,-0.4572,0.9186,1.0507,2.0545,-0.2375,2.4950,-1.0631,-1.2223,-1.8436,25.25275667,83.00973333,9.50177193,
16.0720,-0.4572,0.9186,1.0507,2.0545,-0.2375,2.4950,1.6997,1.1830,2.1276,25.25275667,83.00973333,9.50177193,
16.0770,-0.4572,0.9186,1.0507,-0.9756,1.2583,5.4078,1.6997,1.1830,2.1276,25.25275667,83.00973333,9.50177193,
16.1200,-0.3962,0.7726,0.3061,-0.9756,1.2583,5.4078,1.6997,1.1830,2.1276,25.25275667,83.00973333,9.50177193,
16.1340,-0.3962,0.7726,0.3061,-0.9756,1.2583,5.4078,-0.8806,0.0629,1.4883,25.25275667,83.00973333,9.50177193,
16.1360,-0.3962,0.7726,0.3061,-1.2823,0.1715,-2.8861,-0.8806,0.0629,1.4883,25.25275667,83.00973333,9.50177193,
16.1850,-0.1951,0.8355,0.5103,-1.2823,0.1715,-2.8861,-0.8806,0.0629,1.4883,25.25275667,83.00973333,9.50177193,
16.2000,-0.1951,0.8355,0.5103,-1.2823,0.1715,-2.8861,1.0067,0.2829,0.9032,25.25275667,83.00973333,9.50177193,
16.2030,-0.1951,0.8355,0.5103,0.4463,0.0933,-0.0061,1.0067,0.2829,0.9032,25.25275667,83.00973333,9.50177193,
16.2520,0.0240,0.7835,0.1081,0.4463,0.0933,-0.0061,1.0067,0.2829,0.9032,25.25275667,83.00973333,9.50177193,
16.2790,0.0240,0.7835,0.1081,0.4463,0.0933,-0.0061,0.9441,0.3544,1.1634,25.25275667,83.00973333,9.50177193,
16.2840,0.0240,0.7835,0.1081,3.7159,0.0126,-1.9724,0.9441,0.3544,1.1634,25.25275667,83.00973333,9.50177193,
16.3190,0.2651,0.6023,0.5033,3.7159,0.0126,-1.9724,0.9441,0.3544,1.1634,25.25275667,83.00973333,9.50177193,
16.3320,0.2651,0.6023,0.5033,3.7159,0.0126,-1.9724,-3.5109,-0.4274,-0.0133,25.25275667,83.00973333,9.50177193,
16.3340,0.2651,0.6023,0.5033,4.6627,-1.4885,-1.1729,-3.5109,-0.4274,-0.0133,25.25275667,83.00973333,9.50177193,
16.3830,-1.1128,0.8095,1.9444,4.6627,-1.4885,-1.1729,-3.5109,-0.4274,-0.0133,25.25275667,83.00973333,9.50177193,
16.4130,-1.1128,0.8095,1.9444,4.6627,-1.4885,-1.1729,-1.5167,-0.8795,-3.1596,25.25275667,83.00973333,9.50177193,
16.4150,-1.1128,0.8095,1.9444,-8.7460,0.9638,12.5033,-1.5167,-0.8795,-3.1596,25.25275667,83.00973333,9.50177193,
16.4500,-0.2952,0.6444,0.2291,-8.7460,0.9638,12.5033,-1.5167,-0.8795,-3.1596,25.25275667,83.00973333,9.50177193,
16.4650,-0.2952,0.6444,0.2291,-8.7460,0.9638,12.5033,3.4964,0.4344,-1.1614,25.25275667,83.00973333,9.50177193,
16.4670,-0.2952,0.6444,0.2291,-3.4127,0.0594,-1.4786,3.4964,0.4344,-1.1614,25.25275667,83.00973333,9.50177193,
16.5160,-0.2771,0.9096,0.2231,-3.4127,0.0594,-1.4786,3.4964,0.4344,-1.1614,25.25275667,83.00973333,9.50177193,
16.5320,-0.2771,0.9096,0.2231,-3.4127,0.0594,-1.4786,-0.8143,-0.1088,0.5400,25.25275667,83.00973333,9.50177193,
16.5340,-0.2771,0.9096,0.2231,0.3327,1.1808,-3.0157,-0.8143,-0.1088,0.5400,25.25275667,83.00973333,9.50177193,
16.5820,0.1031,0.7285,-0.2782,0.3327,1.1808,-3.0157,-0.8143,-0.1088,0.5400,25.25275667,83.00973333,9.50177193,
16.5980,0.1031,0.7285,-0.2782,0.3327,1.1808,-3.0157,-0.4554,0.0442,0.5697,25.25275667,83.00973333,9.50177193,
16.6010,0.1031,0.7285,-0.2782,4.1563,0.0031,-8.6714,-0.4554,0.0442,0.5697,25.25275667,83.00973333,9.50177193,
16.6470,-0.0870,0.6034,0.4322,4.1563,0.0031,-8.6714,-0.4554,0.0442,0.5697,25.25275667,83.00973333,9.50177193,
16.6690,-0.0870,0.6034,0.4322,4.1563,0.0031,-8.6714,0.5145,-0.0076,-0.6221,25.25275667,83.00973333,9.50177193,
16.6770,-0.0870,0.6034,0.4322,6.2148,-1.2419,-3.9847,0.5145,-0.0076,-0.6221,25.25275667,83.00973333,9.50177193,
16.7270,-0.7364,0.8926,1.1678,6.2148,-1.2419,-3.9847,0.5145,-0.0076,-0.6221,25.25275667,83.00973333,9.50177193,
16.7360,-0.7364,0.8926,1.1678,6.2148,-1.2419,-3.9847,-1.6802,-0.5666,-0.3970,25.25275667,83.00973333,9.50177193,
16.7370,-0.7364,0.8926,1.1678,1.4160,-0.7698,2.6744,-1.6802,-0.5666,-0.3970,25.25275667,83.00973333,9.50177193,
16.7790,-0.8276,0.6924,1.1478,1.4160,-0.7698,2.6744,-1.6802,-0.5666,-0.3970,25.25275667,83.00973333,9.50177193,
16.7940,-0.8276,0.6924,1.1478,1.4160,-0.7698,2.6744,0.1993,-0.5715,-2.3692,25.25267833,83.00977333,9.01021290,
16.7970,-0.8276,0.6924,1.1478,-4.8473,-0.1637,5.1479,0.1993,-0.5715,-2.3692,25.25267833,83.00977333,9.01021290,
16.8440,-1.0897,1.0387,1.4840,-4.8473,-0.1637,5.1479,0.1993,-0.5715,-2.3692,25.25267833,83.00977333,9.01021290,
16.8630,-1.0897,1.0387,1.4840,-4.8473,-0.1637,5.1479,1.0061,0.2087,-0.4701,25.25267833,83.00977333,9.01021290,
16.8650,-1.0897,1.0387,1.4840,-5.7668,0.1778,9.9851,1.0061,0.2087,-0.4701,25.25267833,83.00977333,9.01021290,
16.9120,0.7174,0.4152,-0.2382,-5.7668,0.1778,9.9851,1.0061,0.2087,-0.4701,25.25267833,83.00977333,9.01021290,
16.9260,0.7174,0.4152,-0.2382,-5.7668,0.1778,9.9851,0.8431,1.0885,3.1738,25.25267833,83.00977333,9.01021290,
16.9290,0.7174,0.4152,-0.2382,10.1189,-3.4505,-7.8188,0.8431,1.0885,3.1738,25.25267833,83.00977333,9.01021290,
16.9770,-0.3672,0.5403,1.0897,10.1189,-3.4505,-7.8188,0.8431,1.0885,3.1738,25.25267833,83.00977333,9.01021290,
16.9920,-0.3672,0.5403,1.0897,10.1189,-3.4505,-7.8188,-4.1323,-1.8868,-2.7566,25.25267833,83.00977333,9.01021290,
16.9940,-0.3672,0.5403,1.0897,-0.2801,-1.5221,4.4598,-4.1323,-1.8868,-2.7566,25.25267833,83.00977333,9.01021290,
17.0430,-0.7755,0.8236,1.2758,-0.2801,-1.5221,4.4598,-4.1323,-1.8868,-2.7566,25.25267833,83.00977333,9.01021290,
17.1070,-0.7755,0.8236,1.2758,-0.2801,-1.5221,4.4598,2.3170,0.5693,-0.8936,25.25267833,83.00977333,9.01021290,
17.1230,-0.7755,0.8236,1.2758,2.7263,-1.6198,-2.4439,2.3170,0.5693,-0.8936,25.25267833,83.00977333,9.01021290,
17.1310,-0.2832,0.7574,0.1501,2.7263,-1.6198,-2.4439,2.3170,0.5693,-0.8936,25.25267833,83.00977333,9.01021290,
17.1380,-0.2832,0.7574,0.1501,2.7263,-1.6198,-2.4439,1.4091,0.5612,0.2933,25.25267833,83.00977333,9.01021290,
17.1420,-0.2832,0.7574,0.1501,-0.1442,-0.6543,2.1487,1.4091,0.5612,0.2933,25.25267833,83.00977333,9.01021290,
17.1750,-0.4543,0.8676,0.1801,-0.1442,-0.6543,2.1487,1.4091,0.5612,0.2933,25.25267833,83.00977333,9.01021290,
17.1890,-0.4543,0.8676,0.1801,-0.1442,-0.6543,2.1487,-3.0230,-0.9023,-0.0797,25.25267833,83.00977333,9.01021290,
17.1910,-0.4543,0.8676,0.1801,-1.2836,1.3736,-4.1762,-3.0230,-0.9023,-0.0797,25.25267833,83.00977333,9.01021290,
17.2410,0.0519,0.8055,-0.3572,-1.2836,1.3736,-4.1762,-3.0230,-0.9023,-0.0797,25.25267833,83.00977333,9.01021290,
17.2570,0.0519,0.8055,-0.3572,-1.2836,1.3736,-4.1762,1.2168,0.5295,1.0079,25.25267833,83.00977333,9.01021290,
17.2610,0.0519,0.8055,-0.3572,3.5601,0.3469,-8.9687,1.2168,0.5295,1.0079,25.25267833,83.00977333,9.01021290,
17.3070,-0.4613,0.9336,1.0547,3.5601,0.3469,-8.9687,1.2168,0.5295,1.0079,25.25267833,83.00977333,9.01021290,
17.3220,-0.4613,0.9336,1.0547,3.5601,0.3469,-8.9687,-0.2123,0.1194,0.6749,25.25267833,83.00977333,9.01021290,
17.3240,-0.4613,0.9336,1.0547,-1.8757,0.9767,5.6054,-0.2123,0.1194,0.6749,25.25267833,83.00977333,9.01021290,
17.3730,-0.5553,0.9266,0.2121,-1.8757,0.9767,5.6054,-0.2123,0.1194,0.6749,25.25267833,83.00977333,9.01021290,
17.3890,-0.5553,0.9266,0.2121,-1.8757,0.9767,5.6054,0.6128,-0.1928,-1.3199,25.25267833,83.00977333,9.01021290,
17.3920,-0.5553,0.9266,0.2121,-2.7777,-0.1849,3.1524,0.6128,-0.1928,-1.3199,25.25267833,83.00977333,9.01021290,
17.4400,-0.1520,0.8626,0.1420,-2.7777,-0.1849,3.1524,0.6128,-0.1928,-1.3199,25.25267833,83.00977333,9.01021290,
17.4550,-0.1520,0.8626,0.1420,-2.7777,-0.1849,3.1524,1.7118,0.8121,2.0503,25.25267833,83.00977333,9.01021290,
17.4580,-0.1520,0.8626,0.1420,0.9883,-0.0329,-2.8520,1.7118,0.8121,2.0503,25.25267833,83.00977333,9.01021290,
17.5060,-0.4963,0.7565,0.8876,0.9883,-0.0329,-2.8520,1.7118,0.8121,2.0503,25.25267833,83.00977333,9.01021290,
17.5190,-0.4963,0.7565,0.8876,0.9883,-0.0329,-2.8520,-2.7138,-1.0346,-1.7071,25.25267833,83.00977333,9.01021290,
17.5340,-0.4963,0.7565,0.8876,-1.8066,-0.1076,3.1989,-2.7138,-1.0346,-1.7071,25.25267833,83.00977333,9.01021290,
17.5710,-0.2351,0.6824,0.6885,-1.8066,-0.1076,3.1989,-2.7138,-1.0346,-1.7071,25.25267833,83.00977333,9.01021290,
17.5850,-0.2351,0.6824,0.6885,-1.8066,-0.1076,3.1989,-0.1358,0.0616,0.3723,25.25267833,83.00977333,9.01021290,
17.5870,-0.2351,0.6824,0.6885,4.4129,-0.2998,-6.7434,-0.1358,0.0616,0.3723,25.25267833,83.00977333,9.01021290,
17.6370,-0.2651,1.0157,0.4533,4.4129,-0.2998,-6.7434,-0.1358,0.0616,0.3723,25.25267833,83.00977333,9.01021290,
17.6840,-0.2651,1.0157,0.4533,4.4129,-0.2998,-6.7434,1.6301,0.6443,1.6049,25.25267833,83.00977333,9.01021290,
17.6860,-0.2651,1.0157,0.4533,-0.3840,1.4436,0.1016,1.6301,0.6443,1.6049,25.25267833,83.00977333,9.01021290,
17.7040,-0.6204,0.7135,0.6444,-0.3840,1.4436,0.1016,1.6301,0.6443,1.6049,25.25267833,83.00977333,9.01021290,
17.7180,-0.6204,0.7135,0.6444,-0.3840,1.4436,0.1016,-1.4086,-0.6236,-1.8660,25.25267833,83.00977333,9.01021290,
17.7200,-0.6204,0.7135,0.6444,-3.2540,-0.4749,0.6210,-1.4086,-0.6236,-1.8660,25.25267833,83.00977333,9.01021290,
17.7690,-0.6935,0.8926,0.9306,-3.2540,-0.4749,0.6210,-1.4086,-0.6236,-1.8660,25.25267833,83.00977333,9.01021290,
17.7830,-0.6935,0.8926,0.9306,-3.2540,-0.4749,0.6210,0.6386,-0.0309,-0.7903,25.25261000,83.00982333,9.24235249,
17.7850,-0.6935,0.8926,0.9306,0.0784,-1.4150,1.6635,0.6386,-0.0309,-0.7903,25.25261000,83.00982333,9.24235249,
17.8350,-0.5673,0.8826,1.1357,0.0784,-1.4150,1.6635,0.6386,-0.0309,-0.7903,25.25261000,83.00982333,9.24235249,
17.8700,-0.5673,0.8826,1.1357,0.0784,-1.4150,1.6635,-0.4637,-0.4046,-1.0624,25.25261000,83.00982333,9.24235249,
17.8720,-0.5673,0.8826,1.1357,1.6591,-0.5649,-0.8822,-0.4637,-0.4046,-1.0624,25.25261000,83.00982333,9.24235249,
17.9010,-0.2171,0.7414,-0.2151,1.6591,-0.5649,-0.8822,-0.4637,-0.4046,-1.0624,25.25261000,83.00982333,9.24235249,
17.9150,-0.2171,0.7414,-0.2151,1.6591,-0.5649,-0.8822,1.5599,0.4299,-0.0040,25.25261000,83.00982333,9.24235249,
17.9170,-0.2171,0.7414,-0.2151,1.1882,-0.6920,-6.7809,1.5599,0.4299,-0.0040,25.25261000,83.00982333,9.24235249,
17.9660,-0.5213,1.0617,0.9527,1.1882,-0.6920,-6.7809,1.5599,0.4299,-0.0040,25.25261000,83.00982333,9.24235249,
17.9810,-0.5213,1.0617,0.9527,1.1882,-0.6920,-6.7809,-0.5169,0.0474,0.5452,25.25261000,83.00982333,9.24235249,
17.9830,-0.5213,1.0617,0.9527,-2.1264,1.9478,5.3679,-0.5169,0.0474,0.5452,25.25261000,83.00982333,9.24235249,
18.0460,-0.1400,0.7374,-0.1861,-2.1264,1.9478,5.3679,-0.5169,0.0474,0.5452,25.25261000,83.00982333,9.24235249,
18.0630,-0.1400,0.7374,-0.1861,-2.1264,1.9478,5.3679,-1.5995,-0.5067,-0.1462,25.25261000,83.00982333,9.24235249,
18.0640,-0.1400,0.7374,-0.1861,2.8116,-0.4569,-7.9928,-1.5995,-0.5067,-0.1462,25.25261000,83.00982333,9.24235249,
18.1010,-0.4453,0.9606,1.2818,2.8116,-0.4569,-7.9928,-1.5995,-0.5067,-0.1462,25.25261000,83.00982333,9.24235249,
18.1150,-0.4453,0.9606,1.2818,2.8116,-0.4569,-7.9928,-1.2033,-0.5944,-0.4199,25.25261000,83.00982333,9.24235249,
18.1170,-0.4453,0.9606,1.2818,-1.0603,1.6494,7.5659,-1.2033,-0.5944,-0.4199,25.25261000,83.00982333,9.24235249,
18.1660,-0.4083,0.7876,0.4353,-1.0603,1.6494,7.5659,-1.2033,-0.5944,-0.4199,25.25261000,83.00982333,9.24235249,
18.1810,-0.4083,0.7876,0.4353,-1.0603,1.6494,7.5659,0.4423,-0.0346,0.0350,25.25261000,83.00982333,9.24235249,
18.1830,-0.4083,0.7876,0.4353,-0.8508,-0.0874,-0.7654,0.4423,-0.0346,0.0350,25.25261000,83.00982333,9.24235249,
18.2320,0.3082,0.6404,0.3783,-0.8508,-0.0874,-0.7654,0.4423,-0.0346,0.0350,25.25261000,83.00982333,9.24235249,
18.2660,0.3082,0.6404,0.3783,-0.8508,-0.0874,-0.7654,-0.1590,0.5613,3.8186,25.25261000,83.00982333,9.24235249,
18.2690,0.3082,0.6404,0.3783,2.8713,-1.9382,-0.7217,-0.1590,0.5613,3.8186,25.25261000,83.00982333,9.24235249,
18.2980,0.3952,0.9177,0.3462,2.8713,-1.9382,-0.7217,-0.1590,0.5613,3.8186,25.25261000,83.00982333,9.24235249,
18.3150,0.3952,0.9177,0.3462,2.8713,-1.9382,-0.7217,-0.3579,0.4348,3.7231,25.25261000,83.00982333,9.24235249,
18.3170,0.3952,0.9177,0.3462,4.0472,0.6849,-1.8129,-0.3579,0.4348,3.7231,25.25261000,83.00982333,9.24235249,
18.3630,-0.6514,0.5234,1.9343,4.0472,0.6849,-1.8129,-0.3579,0.4348,3.7231,25.25261000,83.00982333,9.24235249,
18.3800,-0.6514,0.5234,1.9343,4.0472,0.6849,-1.8129,-4.9359,0.1078,-3.1858,25.25261000,83.00982333,9.24235249,
18.3830,-0.6514,0.5234,1.9343,-5.6122,-1.5693,11.8357,-4.9359,0.1078,-3.1858,25.25261000,83.00982333,9.24235249,
18.4300,-0.2031,0.9096,0.4262,-5.6122,-1.5693,11.8357,-4.9359,0.1078,-3.1858,25.25261000,83.00982333,9.24235249,
18.4450,-0.2031,0.9096,0.4262,-5.6122,-1.5693,11.8357,2.2631,-0.1086,-0.1651,25.25261000,83.00982333,9.24235249,
18.4460,-0.2031,0.9096,0.4262,-3.5038,0.0929,9.9855,2.2631,-0.1086,-0.1651,25.25261000,83.00982333,9.24235249,
18.4970,0.0650,0.6014,0.4983,-3.5038,0.0929,9.9855,2.2631,-0.1086,-0.1651,25.25261000,83.00982333,9.24235249,
18.5170,0.0650,0.6014,0.4983,-3.5038,0.0929,9.9855,-0.4942,0.0188,-0.3585,25.25261000,83.00982333,9.24235249,
18.5250,0.0650,0.6014,0.4983,2.3702,2.4391,-12.5805,-0.4942,0.0188,-0.3585,25.25261000,83.00982333,9.24235249,
18.5620,-0.2091,0.6814,0.1931,2.3702,2.4391,-12.5805,-0.4942,0.0188,-0.3585,25.25261000,83.00982333,9.24235249,
18.5750,-0.2091,0.6814,0.1931,2.3702,2.4391,-12.5805,1.1204,-0.1990,-1.6873,25.25261000,83.00982333,9.24235249,
18.5770,-0.2091,0.6814,0.1931,-0.1247,-1.0433,-3.8391,1.1204,-0.1990,-1.6873,25.25261000,83.00982333,9.24235249,
18.6320,-0.0569,1.0897,0.5873,-0.1247,-1.0433,-3.8391,1.1204,-0.1990,-1.6873,25.25261000,83.00982333,9.24235249,
18.6430,-0.0569,1.0897,0.5873,-0.1247,-1.0433,-3.8391,0.6519,0.4731,1.3713,25.25261000,83.00982333,9.24235249,
18.6450,-0.0569,1.0897,0.5873,-3.6981,-0.1164,14.4553,0.6519,0.4731,1.3713,25.25261000,83.00982333,9.24235249,
18.6950,-0.0770,0.6694,0.5073,-3.6981,-0.1164,14.4553,0.6519,0.4731,1.3713,25.25261000,83.00982333,9.24235249,
18.7090,-0.0770,0.6694,0.5073,-3.6981,-0.1164,14.4553,-2.1123,0.1132,0.6780,25.25261000,83.00982333,9.24235249,
18.7100,-0.0770,0.6694,0.5073,5.2265,-2.4948,-6.6394,-2.1123,0.1132,0.6780,25.25261000,83.00982333,9.24235249,
18.7590,-0.5003,0.8626,2.0685,5.2265,-2.4948,-6.6394,-2.1123,0.1132,0.6780,25.25261000,83.00982333,9.24235249,
18.7730,-0.5003,0.8626,2.0685,5.2265,-2.4948,-6.6394,-2.2154,-0.4046,-2.7732,25.25255000,83.00987667,9.46625614,
18.7760,-0.5003,0.8626,2.0685,-7.0038,0.6497,14.4684,-2.2154,-0.4046,-2.7732,25.25255000,83.00987667,9.46625614,
18.8240,0.3332,0.7876,-0.9797,-7.0038,0.6497,14.4684,-2.2154,-0.4046,-2.7732,25.25255000,83.00987667,9.46625614,
18.8420,0.3332,0.7876,-0.9797,-7.0038,0.6497,14.4684,3.3468,0.6042,1.9362,25.25255000,83.00987667,9.46625614,
18.8440,0.3332,0.7876,-0.9797,-8.7403,2.8048,5.5831,3.3468,0.6042,1.9362,25.25255000,83.00987667,9.46625614,
18.8910,-0.2041,0.5684,0.9537,-8.7403,2.8048,5.5831,3.3468,0.6042,1.9362,25.25255000,83.00987667,9.46625614,
18.9050,-0.2041,0.5684,0.9537,-8.7403,2.8048,5.5831,-2.1832,-0.8941,-1.9372,25.25255000,83.00987667,9.46625614,
18.9080,-0.2041,0.5684,0.9537,6.2266,-0.6658,-13.2114,-2.1832,-0.8941,-1.9372,25.25255000,83.00987667,9.46625614,
18.9560,-0.0300,1.0617,-0.2211,6.2266,-0.6658,-13.2114,-2.1832,-0.8941,-1.9372,25.25255000,83.00987667,9.46625614,
18.9740,-0.0300,1.0617,-0.2211,6.2266,-0.6658,-13.2114,3.5067,0.9202,0.4384,25.25255000,83.00987667,9.46625614,
18.9850,-0.0300,1.0617,-0.2211,-8.6667,3.5187,18.5194,3.5067,0.9202,0.4384,25.25255000,83.00987667,9.46625614,
19.0230,1.2198,0.5623,-3.1952,-8.6667,3.5187,18.5194,3.5067,0.9202,0.4384,25.25255000,83.00987667,9.46625614,
19.0390,1.2198,0.5623,-3.1952,-8.6667,3.5187,18.5194,5.5514,2.5020,3.3323,25.25255000,83.00987667,9.46625614,
19.0410,1.2198,0.5623,-3.1952,14.9605,-2.4404,-36.2016,5.5514,2.5020,3.3323,25.25255000,83.00987667,9.46625614,
19.0890,-0.4973,0.8796,2.8030,14.9605,-2.4404,-36.2016,5.5514,2.5020,3.3323,25.25255000,83.00987667,9.46625614,
19.1030,-0.4973,0.8796,2.8030,14.9605,-2.4404,-36.2016,4.5688,1.5195,0.1825,25.25255000,83.00987667,9.46625614,
19.1050,-0.4973,0.8796,2.8030,0.0767,1.1364,5.1410,4.5688,1.5195,0.1825,25.25255000,83.00987667,9.46625614,
19.1550,-0.0770,0.6023,-0.1570,0.0767,1.1364,5.1410,4.5688,1.5195,0.1825,25.25255000,83.00987667,9.46625614,
19.1690,-0.0770,0.6023,-0.1570,0.0767,1.1364,5.1410,0.8719,0.4186,0.8431,25.25255000,83.00987667,9.46625614,
19.1720,-0.0770,0.6023,-0.1570,4.0664,-3.5132,4.2470,0.8719,0.4186,0.8431,25.25255000,83.00987667,9.46625614,
19.2210,0.0800,0.7545,0.1491,4.0664,-3.5132,4.2470,0.8719,0.4186,0.8431,25.25255000,83.00987667,9.46625614,
19.2540,0.0800,0.7545,0.1491,4.0664,-3.5132,4.2470,3.2573,0.9107,2.6151,25.25255000,83.00987667,9.46625614,
19.2570,0.0800,0.7545,0.1491,-2.6518,1.5125,3.9748,3.2573,0.9107,2.6151,25.25255000,83.00987667,9.46625614,
19.2870,-0.3602,0.7715,1.3219,-2.6518,1.5125,3.9748,3.2573,0.9107,2.6151,25.25255000,83.00987667,9.46625614,
19.3020,-0.3602,0.7715,1.3219,-2.6518,1.5125,3.9748,-2.5660,-0.6082,-1.5645,25.25255000,83.00987667,9.46625614,
19.3050,-0.3602,0.7715,1.3219,-1.2600,0.4595,6.5850,-2.5660,-0.6082,-1.5645,25.25255000,83.00987667,9.46625614,
19.3530,-0.1060,0.8365,0.4693,-1.2600,0.4595,6.5850,-2.5660,-0.6082,-1.5645,25.25255000,83.00987667,9.46625614,
19.3680,-0.1060,0.8365,0.4693,-1.2600,0.4595,6.5850,0.8953,0.4513,1.4457,25.25255000,83.00987667,9.46625614,
19.3720,-0.1060,0.8365,0.4693,-0.2922,0.6969,-0.4139,0.8953,0.4513,1.4457,25.25255000,83.00987667,9.46625614,
19.4210,-0.1100,0.7965,0.1441,-0.2922,0.6969,-0.4139,0.8953,0.4513,1.4457,25.25255000,83.00987667,9.46625614,
19.4350,-0.1100,0.7965,0.1441,-0.2922,0.6969,-0.4139,2.0467,0.3255,0.4712,25.25255000,83.00987667,9.46625614,
19.4360,-0.1100,0.7965,0.1441,0.6506,-0.1469,-4.0587,2.0467,0.3255,0.4712,25.25255000,83.00987667,9.46625614,
19.4850,-0.6964,0.9377,0.3872,0.6506,-0.1469,-4.0587,2.0467,0.3255,0.4712,25.25255000,83.00987667,9.46625614,
19.5050,-0.6964,0.9377,0.3872,0.6506,-0.1469,-4.0587,1.2555,-0.3683,-2.9684,25.25255000,83.00987667,9.46625614,
19.5150,-0.6964,0.9377,0.3872,-4.0412,1.2164,-1.1897,1.2555,-0.3683,-2.9684,25.25255000,83.00987667,9.46625614,
19.5510,-0.1891,0.7414,0.3542,-4.0412,1.2164,-1.1897,1.2555,-0.3683,-2.9684,25.25255000,83.00987667,9.46625614,
19.5660,-0.1891,0.7414,0.3542,-4.0412,1.2164,-1.1897,0.5930,0.1893,-0.1605,25.25255000,83.00987667,9.46625614,
19.5690,-0.1891,0.7414,0.3542,3.0193,-0.0704,-3.0074,0.5930,0.1893,-0.1605,25.25255000,83.00987667,9.46625614,
19.6220,-0.3992,0.9266,0.7385,3.0193,-0.0704,-3.0074,0.5930,0.1893,-0.1605,25.25255000,83.00987667,9.46625614,
19.6360,-0.3992,0.9266,0.7385,3.0193,-0.0704,-3.0074,-0.8661,-0.1323,0.5274,25.25255000,83.00987667,9.46625614,
19.6450,-0.3992,0.9266,0.7385,0.9751,0.6255,4.8198,-0.8661,-0.1323,0.5274,25.25255000,83.00987667,9.46625614,
19.6830,0.0500,0.6774,-0.1220,0.9751,0.6255,4.8198,-0.8661,-0.1323,0.5274,25.25255000,83.00987667,9.46625614,
19.6970,0.0500,0.6774,-0.1220,0.9751,0.6255,4.8198,1.2063,0.6459,3.1271,25.25255000,83.00987667,9.46625614,
19.6990,0.0500,0.6774,-0.1220,2.3374,-1.5222,-6.3085,1.2063,0.6459,3.1271,25.25255000,83.00987667,9.46625614,
19.7490,-0.2201,0.8436,1.0297,2.3374,-1.5222,-6.3085,1.2063,0.6459,3.1271,25.25255000,83.00987667,9.46625614,
19.7630,-0.2201,0.8436,1.0297,2.3374,-1.5222,-6.3085,-1.6965,-0.6551,-1.1738,25.25248833,83.00993833,9.92230034,
19.7660,-0.2201,0.8436,1.0297,0.4063,1.1964,-0.2325,-1.6965,-0.6551,-1.1738,25.25248833,83.00993833,9.92230034,
19.8140,-0.3452,0.5263,0.9206,0.4063,1.1964,-0.2325,-1.6965,-0.6551,-1.1738,25.25248833,83.00993833,9.92230034,
19.8310,-0.3452,0.5263,0.9206,0.4063,1.1964,-0.2325,0.1045,-0.3330,-1.0915,25.25248833,83.00993833,9.92230034,
19.8340,-0.3452,0.5263,0.9206,4.3981,-2.8444,-4.4362,0.1045,-0.3330,-1.0915,25.25248833,83.00993833,9.92230034,
19.8810,-0.3722,0.7926,1.0747,4.3981,-2.8444,-4.4362,0.1045,-0.3330,-1.0915,25.25248833,83.00993833,9.92230034,
19.8950,-0.3722,0.7926,1.0747,4.3981,-2.8444,-4.4362,0.8907,0.3460,0.9751,25.25248833,83.00993833,9.92230034,
19.8970,-0.3722,0.7926,1.0747,-1.5055,-0.4481,5.6242,0.8907,0.3460,0.9751,25.25248833,83.00993833,9.92230034,
19.9480,-0.2382,0.8215,0.7114,-1.5055,-0.4481,5.6242,0.8907,0.3460,0.9751,25.25248833,83.00993833,9.92230034,
19.9620,-0.2382,0.8215,0.7114,-1.5055,-0.4481,5.6242,-2.1594,-0.5816,-0.8989,25.25248833,83.00993833,9.92230034,
19.9650,-0.2382,0.8215,0.7114,0.0802,1.1632,0.4227,-2.1594,-0.5816,-0.8989,25.25248833,83.00993833,9.92230034,
20.0130,0.0040,0.6054,0.0360,0.0802,1.1632,0.4227,-2.1594,-0.5816,-0.8989,25.25248833,83.00993833,9.92230034,
20.0320,0.0040,0.6054,0.0360,0.0802,1.1632,0.4227,1.7016,0.4137,1.1887,25.25248833,83.00993833,9.92230034,
20.0350,0.0040,0.6054,0.0360,1.7588,-1.4016,-3.3115,1.7016,0.4137,1.1887,25.25248833,83.00993833,9.92230034,
20.0790,-0.1660,0.9466,0.9587,1.7588,-1.4016,-3.3115,1.7016,0.4137,1.1887,25.25248833,83.00993833,9.92230034,
20.0940,-0.1660,0.9466,0.9587,1.7588,-1.4016,-3.3115,-1.3865,0.1951,0.7864,25.25248833,83.00993833,9.92230034,
20.0960,-0.1660,0.9466,0.9587,-3.4911,1.9249,6.6808,-1.3865,0.1951,0.7864,25.25248833,83.00993833,9.92230034,
20.1460,-0.6514,0.7524,0.5563,-3.4911,1.9249,6.6808,-1.3865,0.1951,0.7864,25.25248833,83.00993833,9.92230034,
20.1600,-0.6514,0.7524,0.5563,-3.4911,1.9249,6.6808,-1.0567,-0.4587,-2.4315,25.25248833,83.00993833,9.92230034,
20.1630,-0.6514,0.7524,0.5563,-4.0973,0.7391,-1.3972,-1.0567,-0.4587,-2.4315,25.25248833,83.00993833,9.92230034,
20.2140,0.2451,0.8265,-0.5083,-4.0973,0.7391,-1.3972,-1.0567,-0.4587,-2.4315,25.25248833,83.00993833,9.92230034,
20.2290,0.2451,0.8265,-0.5083,-4.0973,0.7391,-1.3972,6.8123,1.8466,3.3131,25.25248833,83.00993833,9.92230034,
20.2320,0.2451,0.8265,-0.5083,4.3060,-0.7103,-8.8431,6.8123,1.8466,3.3131,25.25248833,83.00993833,9.92230034,
20.2780,-0.6044,0.8836,1.8583,4.3060,-0.7103,-8.8431,6.8123,1.8466,3.3131,25.25248833,83.00993833,9.92230034,
20.2950,-0.6044,0.8836,1.8583,4.3060,-0.7103,-8.8431,-4.1912,-1.3126,-2.0846,25.25248833,83.00993833,9.92230034,
20.3050,-0.6044,0.8836,1.8583,-3.1463,1.3133,12.3372,-4.1912,-1.3126,-2.0846,25.25248833,83.00993833,9.92230034,
20.3430,0.5854,0.2661,-0.5093,-3.1463,1.3133,12.3372,-4.1912,-1.3126,-2.0846,25.25248833,83.00993833,9.92230034,
20.3590,0.5854,0.2661,-0.5093,-3.1463,1.3133,12.3372,-2.3982,-0.5418,0.5930,25.25248833,83.00993833,9.92230034,
20.3620,0.5854,0.2661,-0.5093,8.3072,-3.9853,-11.7791,-2.3982,-0.5418,0.5930,25.25248833,83.00993833,9.92230034,
20.4090,-1.2679,1.1458,1.4660,8.3072,-3.9853,-11.7791,-2.3982,-0.5418,0.5930,25.25248833,83.00993833,9.92230034,
20.4240,-1.2679,1.1458,1.4660,8.3072,-3.9853,-11.7791,1.0084,-0.7159,-3.7300,25.25248833,83.00993833,9.92230034,
20.4260,-1.2679,1.1458,1.4660,-9.6983,3.6349,8.7936,1.0084,-0.7159,-3.7300,25.25248833,83.00993833,9.92230034,
20.4750,-0.1391,0.6504,0.2001,-9.6983,3.6349,8.7936,1.0084,-0.7159,-3.7300,25.25248833,83.00993833,9.92230034,
20.4900,-0.1391,0.6504,0.2001,-9.6983,3.6349,8.7936,0.6640,0.1373,-0.2910,25.25248833,83.00993833,9.92230034,
20.4930,-0.1391,0.6504,0.2001,1.7177,-1.2042,-3.4460,0.6640,0.1373,-0.2910,25.25248833,83.00993833,9.92230034,
20.5420,0.0840,0.7024,0.4993,1.7177,-1.2042,-3.4460,0.6640,0.1373,-0.2910,25.25248833,83.00993833,9.92230034,
20.5550,0.0840,0.7024,0.4993,1.7177,-1.2042,-3.4460,-0.1377,0.5405,2.6536,25.25248833,83.00993833,9.92230034,
20.5570,0.0840,0.7024,0.4993,0.5192,0.6312,1.7106,-0.1377,0.5405,2.6536,25.25248833,83.00993833,9.92230034,
20.6070,0.1891,0.4033,0.0590,0.5192,0.6312,1.7106,-0.1377,0.5405,2.6536,25.25248833,83.00993833,9.92230034,
20.6360,0.1891,0.4033,0.0590,0.5192,0.6312,1.7106,-2.6012,-0.3939,-0.4620,25.25248833,83.00993833,9.92230034,
20.6440,0.1891,0.4033,0.0590,3.7456,-3.2189,-5.8369,-2.6012,-0.3939,-0.4620,25.25248833,83.00993833,9.92230034,
20.6740,-0.8726,0.9527,0.9556,3.7456,-3.2189,-5.8369,-2.6012,-0.3939,-0.4620,25.25248833,83.00993833,9.92230034,
20.6870,-0.8726,0.9527,0.9556,3.7456,-3.2189,-5.8369,0.9829,-0.2517,-2.0066,25.25248833,83.00993833,9.92230034,
20.6890,-0.8726,0.9527,0.9556,-6.6201,1.4510,3.8638,0.9829,-0.2517,-2.0066,25.25248833,83.00993833,9.92230034,
20.7410,-0.3722,0.8986,0.4443,-6.6201,1.4510,3.8638,0.9829,-0.2517,-2.0066,25.25248833,83.00993833,9.92230034,
20.7530,-0.3722,0.8986,0.4443,-6.6201,1.4510,3.8638,0.9679,0.0332,-1.0623,25.25248833,83.00993833,9.92230034,
20.7540,-0.3722,0.8986,0.4443,-3.1977,0.0998,2.8798,0.9679,0.0332,-1.0623,25.25242500,83.01001000,9.94906616,
20.8040,-0.2832,0.6824,0.2932,-3.1977,0.0998,2.8798,0.9679,0.0332,-1.0623,25.25242500,83.01001000,9.94906616,
20.8220,-0.2832,0.6824,0.2932,-3.1977,0.0998,2.8798,-0.1734,-0.3028,-1.3332,25.25242500,83.01001000,9.94906616,
20.8240,-0.2832,0.6824,0.2932,0.4356,-1.0886,-2.1641,-0.1734,-0.3028,-1.3332,25.25242500,83.01001000,9.94906616,
20.8720,-0.3582,0.8446,0.6924,0.4356,-1.0886,-2.1641,-0.1734,-0.3028,-1.3332,25.25242500,83.01001000,9.94906616,
20.9020,-0.3582,0.8446,0.6924,0.4356,-1.0886,-2.1641,0.3468,0.3212,0.7321,25.25242500,83.01001000,9.94906616,
20.9040,-0.3582,0.8446,0.6924,-0.6786,0.0587,2.2478,0.3468,0.3212,0.7321,25.25242500,83.01001000,9.94906616,
20.9380,-0.0690,0.7745,0.7505,-0.6786,0.0587,2.2478,0.3468,0.3212,0.7321,25.25242500,83.01001000,9.94906616,
20.9510,-0.0690,0.7745,0.7505,-0.6786,0.0587,2.2478,-1.6413,-0.2520,0.5362,25.25242500,83.01001000,9.94906616,
20.9540,-0.0690,0.7745,0.7505,-0.5377,0.9326,1.1764,-1.6413,-0.2520,0.5362,25.25242500,83.01001000,9.94906616,
21.0030,-0.4362,0.5403,0.5923,-0.5377,0.9326,1.1764,-1.6413,-0.2520,0.5362,25.25242500,83.01001000,9.94906616,
21.0180,-0.4362,0.5403,0.5923,-0.5377,0.9326,1.1764,-0.2360,-0.2651,-0.8667,25.25242500,83.01001000,9.94906616,
21.0200,-0.4362,0.5403,0.5923,5.4898,-2.2903,-10.0422,-0.2360,-0.2651,-0.8667,25.25242500,83.01001000,9.94906616,
21.0690,-0.5353,1.0297,0.8555,5.4898,-2.2903,-10.0422,-0.2360,-0.2651,-0.8667,25.25242500,83.01001000,9.94906616,
21.0830,-0.5353,1.0297,0.8555,5.4898,-2.2903,-10.0422,1.1359,0.2213,-0.3086,25.25242500,83.01001000,9.94906616,
21.0840,-0.5353,1.0297,0.8555,-2.1374,1.9885,3.8186,1.1359,0.2213,-0.3086,25.25242500,83.01001000,9.94906616,
21.1340,-0.1360,0.6084,0.1270,-2.1374,1.9885,3.8186,1.1359,0.2213,-0.3086,25.25242500,83.01001000,9.94906616,
21.1360,-0.1360,0.6084,0.1270,-2.1374,1.9885,3.8186,1.1359,0.2213,-0.3086,25.25242500,83.01001000,9.94906616,
21.1360,-0.1360,0.6084,0.1270,-2.1374,1.9885,3.8186,1.1359,0.2213,-0.3086,25.25242500,83.01001000,9.94906616,
21.1370,-0.1360,0.6084,0.1270,-2.1374,1.9885,3.8186,1.1359,0.2213,-0.3086,25.25242500,83.01001000,9.94906616,
21.1380,-0.1360,0.6084,0.1270,-2.1374,1.9885,3.8186,1.1359,0.2213,-0.3086,25.25242500,83.01001000,9.94906616,
21.1380,-0.1360,0.6084,0.1270,-2.1374,1.9885,3.8186,1.1359,0.2213,-0.3086,25.25242500,83.01001000,9.94906616,
21.1440,0.4453,0.5923,-0.3252,-2.1374,1.9885,3.8186,1.1359,0.2213,-0.3086,25.25242500,83.01001000,9.94906616,
21.1490,0.4453,0.5923,-0.3252,-2.1374,1.9885,3.8186,0.6063,0.3821,1.0149,25.25242500,83.01001000,9.94906616,
21.1500,0.4453,0.5923,-0.3252,-2.1374,1.9885,3.8186,0.6063,0.3821,1.0149,25.25242500,83.01001000,9.94906616,
21.1500,0.4453,0.5923,-0.3252,-2.1374,1.9885,3.8186,0.6063,0.3821,1.0149,25.25242500,83.01001000,9.94906616,
21.1510,0.4453,0.5923,-0.3252,-2.1374,1.9885,3.8186,0.6063,0.3821,1.0149,25.25242500,83.01001000,9.94906616,
21.1510,0.4453,0.5923,-0.3252,-2.1374,1.9885,3.8186,0.6063,0.3821,1.0149,25.25242500,83.01001000,9.94906616,
21.1520,0.4453,0.5923,-0.3252,-2.1374,1.9885,3.8186,0.6063,0.3821,1.0149,25.25242500,83.01001000,9.94906616,
21.1520,0.4453,0.5923,-0.3252,-2.1374,1.9885,3.8186,0.6063,0.3821,1.0149,25.25242500,83.01001000,9.94906616,
21.1540,-0.5133,0.6104,0.6134,-2.1374,1.9885,3.8186,0.6063,0.3821,1.0149,25.25242500,83.01001000,9.94906616,
21.1590,-0.5133,0.6104,0.6134,-2.1374,1.9885,3.8186,1.2143,0.6279,1.8046,25.25242500,83.01001000,9.94906616,
21.1640,0.4553,0.7305,-0.2101,-2.1374,1.9885,3.8186,1.2143,0.6279,1.8046,25.25242500,83.01001000,9.94906616,
21.1690,0.4553,0.7305,-0.2101,-2.1374,1.9885,3.8186,1.0446,0.4907,1.4369,25.25242500,83.01001000,9.94906616,
21.1740,-0.5503,0.7004,0.8336,-2.1374,1.9885,3.8186,1.0446,0.4907,1.4369,25.25242500,83.01001000,9.94906616,
21.1790,-0.5503,0.7004,0.8336,-2.1374,1.9885,3.8186,1.3604,0.6308,2.0580,25.25242500,83.01001000,9.94906616,
21.1840,-0.1250,0.7965,0.3922,-2.1374,1.9885,3.8186,1.3604,0.6308,2.0580,25.25242500,83.01001000,9.94906616,
21.1900,-0.1250,0.7965,0.3922,-2.1374,1.9885,3.8186,0.7927,0.4157,1.5523,25.25242500,83.01001000,9.94906616,
21.1940,0.0430,0.8195,0.1581,-2.1374,1.9885,3.8186,0.7927,0.4157,1.5523,25.25242500,83.01001000,9.94906616,
21.1990,0.0430,0.8195,0.1581,-2.1374,1.9885,3.8186,0.3589,0.2745,1.1989,25.25242500,83.01001000,9.94906616,
21.2000,0.0430,0.8195,0.1581,0.9531,-0.8553,-0.2055,0.3589,0.2745,1.1989,25.25242500,83.01001000,9.94906616,
21.2040,-0.7114,0.8186,1.0697,0.9531,-0.8553,-0.2055,0.3589,0.2745,1.1989,25.25242500,83.01001000,9.94906616,
21.2090,-0.7114,0.8186,1.0697,0.9531,-0.8553,-0.2055,0.4159,0.2876,1.3244,25.25242500,83.01001000,9.94906616,
21.2140,0.2041,0.8276,0.4772,0.9531,-0.8553,-0.2055,0.4159,0.2876,1.3244,25.25242500,83.01001000,9.94906616,
21.2190,0.2041,0.8276,0.4772,0.9531,-0.8553,-0.2055,-0.3226,-0.0117,0.4353,25.25242500,83.01001000,9.94906616,
21.2250,-0.5963,0.7214,1.5160,0.9531,-0.8553,-0.2055,-0.3226,-0.0117,0.4353,25.25242500,83.01001000,9.94906616,
21.2290,-0.5963,0.7214,1.5160,0.9531,-0.8553,-0.2055,-0.8026,-0.0274,0.6373,25.25242500,83.01001000,9.94906616,
21.2340,-0.0620,0.7995,1.0978,0.9531,-0.8553,-0.2055,-0.8026,-0.0274,0.6373,25.25242500,83.01001000,9.94906616,
21.2400,-0.0620,0.7995,1.0978,0.9531,-0.8553,-0.2055,-2.0724,-0.2768,0.1398,25.25242500,83.01001000,9.94906616,
21.2440,-0.3121,0.7795,1.1217,0.9531,-0.8553,-0.2055,-2.0724,-0.2768,0.1398,25.25242500,83.01001000,9.94906616,
21.2490,-0.3121,0.7795,1.1217,0.9531,-0.8553,-0.2055,-3.0539,-0.3855,0.1580,25.25242500,83.01001000,9.94906616,
21.2550,-0.5513,0.7424,1.1567,0.9531,-0.8553,-0.2055,-3.0539,-0.3855,0.1580,25.25242500,83.01001000,9.94906616,
21.2590,-0.5513,0.7424,1.1567,0.9531,-0.8553,-0.2055,-3.5846,-0.4476,0.0822,25.25242500,83.01001000,9.94906616,
21.2610,-0.5513,0.7424,1.1567,-1.0515,-0.2445,5.5175,-3.5846,-0.4476,0.0822,25.25242500,83.01001000,9.94906616,
21.2640,0.2311,0.7155,0.4512,-1.0515,-0.2445,5.5175,-3.5846,-0.4476,0.0822,25.25242500,83.01001000,9.94906616,
21.2690,0.2311,0.7155,0.4512,-1.0515,-0.2445,5.5175,-3.7636,-0.5982,-0.5089,25.25242500,83.01001000,9.94906616,
21.2750,-0.7045,0.6273,1.1548,-1.0515,-0.2445,5.5175,-3.7636,-0.5982,-0.5089,25.25242500,83.01001000,9.94906616,
21.2790,-0.7045,0.6273,1.1548,-1.0515,-0.2445,5.5175,-3.3358,-0.4316,0.0253,25.25242500,83.01001000,9.94906616,
21.2840,0.2971,0.6744,0.2861,-1.0515,-0.2445,5.5175,-3.3358,-0.4316,0.0253,25.25242500,83.01001000,9.94906616,
21.2890,0.2971,0.6744,0.2861,-1.0515,-0.2445,5.5175,-3.1127,-0.5059,-0.5200,25.25242500,83.01001000,9.94906616,
21.2940,-0.4873,0.6424,0.8846,-1.0515,-0.2445,5.5175,-3.1127,-0.5059,-0.5200,25.25242500,83.01001000,9.94906616,
21.2990,-0.4873,0.6424,0.8846,-1.0515,-0.2445,5.5175,-2.5291,-0.3075,0.0739,25.25242500,83.01001000,9.94906616,
21.3060,-0.6564,0.6794,0.8576,-1.0515,-0.2445,5.5175,-2.5291,-0.3075,0.0739,25.25242500,83.01001000,9.94906616,
21.3090,-0.6564,0.6794,0.8576,-1.0515,-0.2445,5.5175,-2.1320,-0.3020,-0.1288,25.25242500,83.01001000,9.94906616,
21.3140,0.1851,0.6273,0.1281,-1.0515,-0.2445,5.5175,-2.1320,-0.3020,-0.1288,25.25242500,83.01001000,9.94906616,
21.3190,0.1851,0.6273,0.1281,-1.0515,-0.2445,5.5175,-1.7783,-0.4443,-1.0596,25.25242500,83.01001000,9.94906616,
21.3190,0.1851,0.6273,0.1281,-4.2606,-0.3378,1.8852,-1.7783,-0.4443,-1.0596,25.25242500,83.01001000,9.94906616,
21.3240,-0.5934,0.6223,0.7205,-4.2606,-0.3378,1.8852,-1.7783,-0.4443,-1.0596,25.25242500,83.01001000,9.94906616,
21.3290,-0.5934,0.6223,0.7205,-4.2606,-0.3378,1.8852,-1.1554,-0.2948,-0.7023,25.25242500,83.01001000,9.94906616,
21.3340,0.2061,0.8186,-0.0380,-4.2606,-0.3378,1.8852,-1.1554,-0.2948,-0.7023,25.25242500,83.01001000,9.94906616,
21.3420,0.2061,0.8186,-0.0380,-4.2606,-0.3378,1.8852,-0.7363,-0.3145,-1.0870,25.25242500,83.01001000,9.94906616,
21.3440,-0.8866,0.8165,1.0728,-4.2606,-0.3378,1.8852,-0.7363,-0.3145,-1.0870,25.25242500,83.01001000,9.94906616,
21.3490,-0.8866,0.8165,1.0728,-4.2606,-0.3378,1.8852,0.0507,-0.0768,-0.4255,25.25242500,83.01001000,9.94906616,
21.3560,-0.3983,0.7805,0.8355,-4.2606,-0.3378,1.8852,0.0507,-0.0768,-0.4255,25.25242500,83.01001000,9.94906616,
21.3590,-0.3983,0.7805,0.8355,-4.2606,-0.3378,1.8852,0.2863,-0.1934,-1.1229,25.25242500,83.01001000,9.94906616,
21.3640,-0.1291,0.7855,0.6404,-4.2606,-0.3378,1.8852,0.2863,-0.1934,-1.1229,25.25242500,83.01001000,9.94906616,
21.3690,-0.1291,0.7855,0.6404,-4.2606,-0.3378,1.8852,0.2169,-0.3000,-1.5712,25.25242500,83.01001000,9.94906616,
21.3740,-0.6585,0.6904,1.0307,-4.2606,-0.3378,1.8852,0.2169,-0.3000,-1.5712,25.25242500,83.01001000,9.94906616,
21.3790,-0.6585,0.6904,1.0307,-4.2606,-0.3378,1.8852,0.1447,-0.2368,-1.2393,25.25242500,83.01001000,9.94906616,
21.3800,-0.6585,0.6904,1.0307,1.2758,0.6983,-0.1042,0.1447,-0.2368,-1.2393,25.25242500,83.01001000,9.94906616,
21.3840,0.5623,0.6885,0.0510,1.2758,0.6983,-0.1042,0.1447,-0.2368,-1.2393,25.25242500,83.01001000,9.94906616,
21.3890,0.5623,0.6885,0.0510,1.2758,0.6983,-0.1042,-0.0883,-0.3491,-1.5521,25.25242500,83.01001000,9.94906616,
21.3950,-0.5623,0.7595,0.7054,1.2758,0.6983,-0.1042,-0.0883,-0.3491,-1.5521,25.25242500,83.01001000,9.94906616,
21.3990,-0.5623,0.7595,0.7054,1.2758,0.6983,-0.1042,0.0104,-0.0376,-0.1504,25.25242500,83.01001000,9.94906616,
21.4050,0.2491,0.8536,0.1781,1.2758,0.6983,-0.1042,0.0104,-0.0376,-0.1504,25.25242500,83.01001000,9.94906616,
21.4090,0.2491,0.8536,0.1781,1.2758,0.6983,-0.1042,0.1567,0.0549,0.0446,25.25242500,83.01001000,9.94906616,
21.4140,-0.4422,0.8756,0.9566,1.2758,0.6983,-0.1042,0.1567,0.0549,0.0446,25.25242500,83.01001000,9.94906616,
21.4190,-0.4422,0.8756,0.9566,1.2758,0.6983,-0.1042,0.5389,0.2976,0.8861,25.25242500,83.01001000,9.94906616,
21.4240,-0.8856,0.9066,1.1038,1.2758,0.6983,-0.1042,0.5389,0.2976,0.8861,25.25242500,83.01001000,9.94906616,
21.4290,-0.8856,0.9066,1.1038,1.2758,0.6983,-0.1042,0.4967,0.2954,0.9100,25.25242500,83.01001000,9.94906616,
21.4380,0.0490,0.8786,0.4543,1.2758,0.6983,-0.1042,0.4967,0.2954,0.9100,25.25242500,83.01001000,9.94906616,
21.4400,0.0490,0.8786,0.4543,1.2758,0.6983,-0.1042,0.3027,0.0258,-0.2306,25.25242500,83.01001000,9.94906616,
21.4410,0.0490,0.8786,0.4543,-6.1852,1.7443,4.5763,0.3027,0.0258,-0.2306,25.25242500,83.01001000,9.94906616,
21.4440,-0.9766,0.8095,1.2098,-6.1852,1.7443,4.5763,0.3027,0.0258,-0.2306,25.25242500,83.01001000,9.94906616,
21.4490,-0.9766,0.8095,1.2098,-6.1852,1.7443,4.5763,0.3223,0.0600,-0.1493,25.25242500,83.01001000,9.94906616,
21.4550,0.0059,0.7104,0.4122,-6.1852,1.7443,4.5763,0.3223,0.0600,-0.1493,25.25242500,83.01001000,9.94906616,
21.4590,0.0059,0.7104,0.4122,-6.1852,1.7443,4.5763,0.1232,-0.1720,-1.0720,25.25242500,83.01001000,9.94906616,
21.4640,-0.4613,0.5484,0.9616,-6.1852,1.7443,4.5763,0.1232,-0.1720,-1.0720,25.25242500,83.01001000,9.94906616,
21.4690,-0.4613,0.5484,0.9616,-6.1852,1.7443,4.5763,0.0861,-0.1538,-0.9601,25.25242500,83.01001000,9.94906616,
21.4740,-0.2701,0.4763,0.4133,-6.1852,1.7443,4.5763,0.0861,-0.1538,-0.9601,25.25242500,83.01001000,9.94906616,
21.4790,-0.2701,0.4763,0.4133,-6.1852,1.7443,4.5763,-0.2200,-0.2544,-1.0600,25.25242500,83.01001000,9.94906616,
21.4840,0.8555,0.4833,-0.9587,-6.1852,1.7443,4.5763,-0.2200,-0.2544,-1.0600,25.25242500,83.01001000,9.94906616,
21.4890,0.8555,0.4833,-0.9587,-6.1852,1.7443,4.5763,-0.2768,-0.3145,-1.1563,25.25242500,83.01001000,9.94906616,
21.4950,-0.5934,0.6094,0.0119,-6.1852,1.7443,4.5763,-0.2768,-0.3145,-1.1563,25.25242500,83.01001000,9.94906616,
21.4990,-0.5934,0.6094,0.0119,-6.1852,1.7443,4.5763,0.6486,0.2722,0.6481,25.25242500,83.01001000,9.94906616,
21.5000,-0.5934,0.6094,0.0119,10.9757,-2.4753,-15.5139,0.6486,0.2722,0.6481,25.25242500,83.01001000,9.94906616,
21.5120,0.4112,0.7635,-0.7505,10.9757,-2.4753,-15.5139,0.6486,0.2722,0.6481,25.25242500,83.01001000,9.94906616,
21.5140,0.4112,0.7635,-0.7505,10.9757,-2.4753,-15.5139,1.6553,0.4915,0.6650,25.25242500,83.01001000,9.94906616,
21.5150,-0.1581,0.7114,0.0130,10.9757,-2.4753,-15.5139,1.6553,0.4915,0.6650,25.25242500,83.01001000,9.94906616,
21.5200,-0.1581,0.7114,0.0130,10.9757,-2.4753,-15.5139,3.1434,0.9211,1.4865,25.25242500,83.01001000,9.94906616,
21.5240,-0.4222,0.9336,0.4483,10.9757,-2.4753,-15.5139,3.1434,0.9211,1.4865,25.25242500,83.01001000,9.94906616,
21.5290,-0.4222,0.9336,0.4483,10.9757,-2.4753,-15.5139,3.9252,1.0966,1.7629,25.25242500,83.01001000,9.94906616,
21.5340,-0.1861,0.9937,0.4603,10.9757,-2.4753,-15.5139,3.9252,1.0966,1.7629,25.25242500,83.01001000,9.94906616,
21.5420,-0.1861,0.9937,0.4603,10.9757,-2.4753,-15.5139,3.8503,0.9807,1.3173,25.25242500,83.01001000,9.94906616,
21.5440,-0.9977,1.0717,1.5281,10.9757,-2.4753,-15.5139,3.8503,0.9807,1.3173,25.25242500,83.01001000,9.94906616,
21.5490,-0.9977,1.0717,1.5281,10.9757,-2.4753,-15.5139,3.3513,0.8513,1.0953,25.25242500,83.01001000,9.94906616,
21.5550,-0.1060,1.0897,0.8055,10.9757,-2.4753,-15.5139,3.3513,0.8513,1.0953,25.25242500,83.01001000,9.94906616,
21.5590,-0.1060,1.0897,0.8055,10.9757,-2.4753,-15.5139,1.7591,0.2997,-0.1495,25.25242500,83.01001000,9.94906616,
21.5600,-0.1060,1.0897,0.8055,-7.2371,2.1748,10.4626,1.7591,0.2997,-0.1495,25.25242500,83.01001000,9.94906616,
21.5650,-0.8826,1.0828,1.7772,-7.2371,2.1748,10.4626,1.7591,0.2997,-0.1495,25.25242500,83.01001000,9.94906616,
21.5770,-0.8826,1.0828,1.7772,-7.2371,2.1748,10.4626,0.5585,0.0686,-0.2999,25.25242500,83.01001000,9.94906616,
21.5790,-0.6464,0.9577,1.3609,-7.2371,2.1748,10.4626,0.5585,0.0686,-0.2999,25.25242500,83.01001000,9.94906616,
21.5800,-0.6464,0.9577,1.3609,-7.2371,2.1748,10.4626,-0.9021,-0.3547,-0.9273,25.25242500,83.01001000,9.94906616,
21.5860,-0.3972,0.9056,0.9096,-7.2371,2.1748,10.4626,-0.9021,-0.3547,-0.9273,25.25242500,83.01001000,9.94906616,
21.5890,-0.3972,0.9056,0.9096,-7.2371,2.1748,10.4626,-1.9341,-0.6919,-1.4811,25.25242500,83.01001000,9.94906616,
21.5940,-0.6594,0.6914,0.7805,-7.2371,2.1748,10.4626,-1.9341,-0.6919,-1.4811,25.25242500,83.01001000,9.94906616,
21.5990,-0.6594,0.6914,0.7805,-7.2371,2.1748,10.4626,-2.2267,-0.7911,-1.5490,25.25242500,83.01001000,9.94906616,
21.6050,0.6404,0.5203,-0.4322,-7.2371,2.1748,10.4626,-2.2267,-0.7911,-1.5490,25.25242500,83.01001000,9.94906616,
21.6090,0.6404,0.5203,-0.4322,-7.2371,2.1748,10.4626,-2.0562,-0.8644,-1.8798,25.25242500,83.01001000,9.94906616,
21.6140,-0.3352,0.5303,0.2971,-7.2371,2.1748,10.4626,-2.0562,-0.8644,-1.8798,25.25242500,83.01001000,9.94906616,
21.6190,-0.3352,0.5303,0.2971,-7.2371,2.1748,10.4626,-1.2598,-0.3932,-0.5965,25.25242500,83.01001000,9.94906616,
21.6210,-0.3352,0.5303,0.2971,9.1538,-2.3933,-9.8707,-1.2598,-0.3932,-0.5965,25.25242500,83.01001000,9.94906616,
21.6240,0.2191,0.5393,-0.2391,9.1538,-2.3933,-9.8707,-1.2598,-0.3932,-0.5965,25.25242500,83.01001000,9.94906616,
21.6290,0.2191,0.5393,-0.2391,9.1538,-2.3933,-9.8707,-0.5971,-0.1283,-0.1012,25.25242500,83.01001000,9.94906616,
21.6360,0.3812,0.4953,-0.3002,9.1538,-2.3933,-9.8707,-0.5971,-0.1283,-0.1012,25.25242500,83.01001000,9.94906616,
21.6390,0.3812,0.4953,-0.3002,9.1538,-2.3933,-9.8707,0.2094,0.2104,0.6328,25.25242500,83.01001000,9.94906616,
21.6440,-0.4383,0.7114,0.5033,9.1538,-2.3933,-9.8707,0.2094,0.2104,0.6328,25.25242500,83.01001000,9.94906616,
21.6490,-0.4383,0.7114,0.5033,9.1538,-2.3933,-9.8707,1.0661,0.5802,1.7147,25.25242500,83.01001000,9.94906616,
21.6630,0.2771,0.7505,-0.0269,9.1538,-2.3933,-9.8707,1.0661,0.5802,1.7147,25.25242500,83.01001000,9.94906616,
21.6650,0.2771,0.7505,-0.0269,9.1538,-2.3933,-9.8707,1.2807,0.5777,1.5794,25.25242500,83.01001000,9.94906616,
21.6660,-0.7674,0.7515,1.2729,9.1538,-2.3933,-9.8707,1.2807,0.5777,1.5794,25.25242500,83.01001000,9.94906616,
21.6730,-0.7674,0.7515,1.2729,9.1538,-2.3933,-9.8707,1.6047,0.6992,2.0335,25.25242500,83.01001000,9.94906616,
21.6740,-0.0820,0.8186,0.7004,9.1538,-2.3933,-9.8707,1.6047,0.6992,2.0335,25.25242500,83.01001000,9.94906616,
21.6810,-0.0820,0.8186,0.7004,9.1538,-2.3933,-9.8707,0.7366,0.3805,1.1431,25.25242500,83.01001000,9.94906616,
21.6820,-0.0820,0.8186,0.7004,-5.2031,-0.7701,7.5132,0.7366,0.3805,1.1431,25.25242500,83.01001000,9.94906616,
21.6870,-0.2051,0.7895,0.8636,-5.2031,-0.7701,7.5132,0.7366,0.3805,1.1431,25.25242500,83.01001000,9.94906616,
21.6910,-0.2051,0.7895,0.8636,-5.2031,-0.7701,7.5132,-0.0420,0.1912,0.8167,25.25242500,83.01001000,9.94906616,
