time,gFx,gFy,gFz,ax,ay,az,wx,wy,wz,P
0.788,-0.19,0.52,0.74,-0.04,-0.24,-0.21,0.04,-0.04,0.01,0.00
0.789,-0.19,0.52,0.74,-0.40,-0.02,-1.10,0.04,-0.04,0.01,0.00
0.829,-0.19,0.52,0.74,0.46,0.33,0.08,0.04,-0.04,0.01,0.00
0.829,-0.11,0.54,0.87,0.46,0.33,0.08,0.04,-0.04,0.01,0.00
0.829,-0.11,0.54,0.87,0.46,0.33,0.08,-0.22,-0.32,0.05,0.00
0.868,-0.11,0.54,0.87,0.15,0.05,0.51,-0.22,-0.32,0.05,0.00
0.907,-0.11,0.54,0.87,0.15,0.05,0.51,-0.09,-0.15,-0.04,0.00
0.908,-0.14,0.51,0.90,0.15,0.05,0.51,-0.09,-0.15,-0.04,0.00
0.908,-0.14,0.51,0.90,-0.03,-0.07,0.62,-0.09,-0.15,-0.04,0.00
0.947,-0.13,0.51,0.83,-0.03,-0.07,0.62,-0.09,-0.15,-0.04,0.00
0.947,-0.13,0.51,0.83,-0.13,0.04,-0.31,-0.09,-0.15,-0.04,0.00
0.987,-0.13,0.51,0.83,-0.13,0.04,-0.31,-0.03,0.00,0.01,0.00
0.987,-0.13,0.51,0.83,0.02,-0.08,-0.13,-0.03,0.00,0.01,0.00
1.026,-0.13,0.51,0.86,0.02,-0.08,-0.13,-0.03,0.00,0.01,0.00
1.026,-0.13,0.51,0.86,0.02,-0.08,-0.13,-0.04,-0.11,0.03,0.00
1.027,-0.13,0.51,0.86,-0.14,-0.04,-0.50,-0.04,-0.11,0.03,0.00
1.065,-0.13,0.51,0.86,0.12,0.07,0.75,-0.04,-0.11,0.03,0.00
1.107,-0.13,0.51,0.86,0.12,0.07,0.75,-0.02,-0.03,-0.01,0.00
1.107,-0.13,0.50,0.83,0.12,0.07,0.75,-0.02,-0.03,-0.01,0.00
1.107,-0.13,0.50,0.83,0.04,-0.11,-0.16,-0.02,-0.03,-0.01,0.00
1.144,-0.13,0.50,0.83,-0.24,0.01,-0.21,-0.02,-0.03,-0.01,0.00
1.145,-0.12,0.50,0.83,-0.24,0.01,-0.21,-0.02,-0.03,-0.01,0.00
1.184,-0.12,0.50,0.83,-0.24,0.01,-0.21,-0.05,-0.07,-0.00,0.00
1.184,-0.12,0.50,0.83,0.08,-0.09,-0.15,-0.05,-0.07,-0.00,0.00
1.224,-0.12,0.50,0.83,0.08,-0.09,-0.15,-0.06,-0.05,-0.02,0.00
1.224,-0.11,0.51,0.85,0.08,-0.09,-0.15,-0.06,-0.05,-0.02,0.00
1.225,-0.11,0.51,0.85,0.21,0.11,-0.05,-0.06,-0.05,-0.02,0.00
1.263,-0.11,0.51,0.85,-0.09,-0.04,0.09,-0.06,-0.05,-0.02,0.00
1.303,-0.11,0.51,0.85,-0.09,-0.04,0.09,-0.01,-0.05,-0.01,0.00
1.304,-0.13,0.50,0.86,-0.09,-0.04,0.09,-0.01,-0.05,-0.01,0.00
1.304,-0.13,0.50,0.86,-0.08,-0.03,0.20,-0.01,-0.05,-0.01,0.00
1.343,-0.10,0.51,0.89,-0.08,-0.03,0.20,-0.01,-0.05,-0.01,0.00
1.344,-0.10,0.51,0.89,-0.16,-0.01,-0.30,-0.01,-0.05,-0.01,0.00
1.383,-0.10,0.51,0.89,-0.16,-0.01,-0.30,-0.03,-0.02,0.01,0.00
1.384,-0.10,0.51,0.89,0.16,0.06,0.34,-0.03,-0.02,0.01,0.00
1.423,-0.10,0.51,0.89,0.16,0.06,0.34,-0.02,0.02,-0.00,0.00
1.424,-0.12,0.50,0.85,0.16,0.06,0.34,-0.02,0.02,-0.00,0.00
1.424,-0.12,0.50,0.85,-0.14,-0.05,-0.17,-0.02,0.02,-0.00,0.00
1.462,-0.12,0.50,0.85,0.02,0.04,0.10,-0.02,0.02,-0.00,0.00
1.501,-0.12,0.50,0.85,0.02,0.04,0.10,-0.00,-0.00,0.02,0.00
1.501,-0.12,0.50,0.84,0.02,0.04,0.10,-0.00,-0.00,0.02,0.00
1.502,-0.12,0.50,0.84,-0.14,-0.06,-0.30,-0.00,-0.00,0.02,0.00
1.54,-0.15,0.49,0.85,-0.14,-0.06,-0.30,-0.00,-0.00,0.02,0.00
1.541,-0.15,0.49,0.85,0.26,0.18,0.17,-0.00,-0.00,0.02,0.00
1.58,-0.15,0.49,0.85,0.26,0.18,0.17,-0.04,0.01,-0.01,0.00
1.581,-0.15,0.49,0.85,-0.27,-0.12,-0.01,-0.04,0.01,-0.01,0.00
1.619,-0.11,0.50,0.85,-0.27,-0.12,-0.01,-0.04,0.01,-0.01,0.00
1.62,-0.11,0.50,0.85,-0.27,-0.12,-0.01,-0.01,-0.02,0.02,0.00
1.621,-0.11,0.50,0.85,-0.05,-0.03,-0.16,-0.01,-0.02,0.02,0.00
1.659,-0.11,0.50,0.85,0.09,0.03,0.04,-0.01,-0.02,0.02,0.00
1.701,-0.11,0.50,0.85,0.09,0.03,0.04,-0.01,0.01,0.00,0.00
1.702,-0.12,0.49,0.85,0.09,0.03,0.04,-0.01,0.01,0.00,0.00
1.702,-0.12,0.49,0.85,-0.03,-0.06,-0.02,-0.01,0.01,0.00,0.00
1.738,-0.12,0.49,0.85,0.06,-0.03,0.03,-0.01,0.01,0.00,0.00
1.778,-0.12,0.49,0.85,0.06,-0.03,0.03,-0.01,0.01,0.02,0.00
1.779,-0.13,0.49,0.85,0.06,-0.03,0.03,-0.01,0.01,0.02,0.00
1.779,-0.13,0.49,0.85,-0.09,-0.06,-0.05,-0.01,0.01,0.02,0.00
1.819,-0.13,0.49,0.85,-0.09,-0.06,-0.05,-0.02,-0.00,0.01,0.00
1.82,-0.11,0.50,0.86,-0.09,-0.06,-0.05,-0.02,-0.00,0.01,0.00
1.82,-0.11,0.50,0.86,0.12,0.04,-0.05,-0.02,-0.00,0.01,0.00
1.857,-0.11,0.50,0.86,0.11,0.06,0.11,-0.02,-0.00,0.01,0.00
1.896,-0.11,0.50,0.86,0.11,0.06,0.11,-0.03,-0.01,-0.01,0.00
1.897,-0.12,0.50,0.86,0.11,0.06,0.11,-0.03,-0.01,-0.01,0.00
1.897,-0.12,0.50,0.86,-0.04,0.00,-0.10,-0.03,-0.01,-0.01,0.00
1.936,-0.12,0.50,0.86,0.05,0.01,0.12,-0.03,-0.01,-0.01,0.00
1.975,-0.12,0.50,0.86,0.05,0.01,0.12,-0.03,-0.03,0.02,0.00
1.976,-0.12,0.50,0.86,-0.16,-0.13,-0.14,-0.03,-0.03,0.02,0.00
1.977,-0.13,0.48,0.84,-0.16,-0.13,-0.14,-0.03,-0.03,0.02,0.00
2.014,-0.11,0.49,0.84,-0.16,-0.13,-0.14,-0.03,-0.03,0.02,0.00
2.015,-0.11,0.49,0.84,0.21,0.07,0.04,-0.03,-0.03,0.02,0.00
2.054,-0.11,0.49,0.84,0.21,0.07,0.04,-0.00,-0.00,0.00,0.00
2.055,-0.11,0.49,0.84,-0.04,-0.05,-0.15,-0.00,-0.00,0.00,0.00
2.094,-0.11,0.49,0.84,-0.04,-0.05,-0.15,-0.03,-0.03,-0.02,0.00
2.094,-0.11,0.49,0.86,-0.04,-0.05,-0.15,-0.03,-0.03,-0.02,0.00
2.095,-0.11,0.49,0.86,0.02,0.04,-0.09,-0.03,-0.03,-0.02,0.00
2.133,-0.11,0.49,0.86,-0.07,-0.02,0.16,-0.03,-0.03,-0.02,0.00
2.173,-0.11,0.49,0.86,-0.07,-0.02,0.16,-0.05,-0.01,-0.02,0.00
2.174,-0.12,0.49,0.87,-0.07,-0.02,0.16,-0.05,-0.01,-0.02,0.00
2.174,-0.12,0.49,0.87,-0.08,0.01,0.09,-0.05,-0.01,-0.02,0.00
2.212,-0.10,0.50,0.87,-0.08,0.01,0.09,-0.05,-0.01,-0.02,0.00
2.213,-0.10,0.50,0.87,-0.04,0.01,-0.03,-0.05,-0.01,-0.02,0.00
2.252,-0.10,0.50,0.87,-0.04,0.01,-0.03,-0.03,-0.01,0.01,0.00
2.253,-0.10,0.50,0.87,0.14,0.11,0.06,-0.03,-0.01,0.01,0.00
2.292,-0.10,0.50,0.87,0.14,0.11,0.06,-0.02,-0.00,0.00,0.00
2.292,-0.10,0.50,0.87,-0.06,-0.07,-0.05,-0.02,-0.00,0.00,0.00
2.293,-0.11,0.49,0.86,-0.06,-0.07,-0.05,-0.02,-0.00,0.00,0.00
2.331,-0.11,0.49,0.86,0.00,0.07,-0.01,-0.02,-0.00,0.00,0.00
2.371,-0.11,0.49,0.86,0.00,0.07,-0.01,-0.01,-0.02,0.01,0.00
2.371,-0.11,0.48,0.87,0.00,0.07,-0.01,-0.01,-0.02,0.01,0.00
2.372,-0.11,0.48,0.87,0.00,-0.07,0.12,-0.01,-0.02,0.01,0.00
2.41,-0.10,0.48,0.82,0.00,-0.07,0.12,-0.01,-0.02,0.01,0.00
2.411,-0.10,0.48,0.82,0.06,-0.01,-0.07,-0.01,-0.02,0.01,0.00
2.45,-0.10,0.48,0.82,0.06,-0.01,-0.07,0.00,-0.01,0.01,0.00
2.451,-0.10,0.48,0.82,0.10,-0.03,-0.38,0.00,-0.01,0.01,0.00
2.489,-0.10,0.48,0.82,0.01,0.01,0.31,0.00,-0.01,0.01,0.00
2.49,-0.10,0.48,0.82,0.01,0.01,0.31,-0.04,0.00,-0.04,0.00
2.49,-0.12,0.48,0.89,0.01,0.01,0.31,-0.04,0.00,-0.04,0.00
2.529,-0.12,0.48,0.89,-0.26,-0.10,0.24,-0.04,0.00,-0.04,0.00
2.569,-0.12,0.48,0.89,-0.26,-0.10,0.24,0.02,-0.01,0.02,0.00
2.569,-0.10,0.49,0.87,-0.26,-0.10,0.24,0.02,-0.01,0.02,0.00
2.57,-0.10,0.49,0.87,0.14,0.16,0.08,0.02,-0.01,0.02,0.00
2.608,-0.11,0.49,0.85,0.14,0.16,0.08,0.02,-0.01,0.02,0.00
2.609,-0.11,0.49,0.85,-0.10,-0.09,-0.04,0.02,-0.01,0.02,0.00
2.648,-0.11,0.49,0.85,-0.10,-0.09,-0.04,0.01,0.02,0.01,0.00
2.649,-0.11,0.49,0.85,0.02,0.03,-0.16,0.01,0.02,0.01,0.00
2.687,-0.11,0.48,0.86,0.02,0.03,-0.16,0.01,0.02,0.01,0.00
2.688,-0.11,0.48,0.86,0.02,0.03,-0.16,-0.00,-0.01,-0.00,0.00
2.688,-0.11,0.48,0.86,0.04,0.00,-0.02,-0.00,-0.01,-0.00,0.00
2.726,-0.11,0.48,0.86,-0.00,-0.05,0.04,-0.00,-0.01,-0.00,0.00
2.766,-0.11,0.48,0.86,-0.00,-0.05,0.04,0.01,0.00,-0.01,0.00
2.767,-0.11,0.48,0.85,-0.00,-0.05,0.04,0.01,0.00,-0.01,0.00
2.767,-0.11,0.48,0.85,-0.02,-0.04,-0.12,0.01,0.00,-0.01,0.00
2.809,-0.11,0.48,0.85,-0.08,-0.10,-0.15,0.01,0.00,-0.01,0.00
2.845,-0.11,0.48,0.85,-0.08,-0.10,-0.15,-0.02,-0.00,0.01,0.00
2.846,-0.11,0.48,0.85,0.12,0.12,-0.19,-0.02,-0.00,0.01,0.00
2.847,-0.10,0.49,0.84,0.12,0.12,-0.19,-0.02,-0.00,0.01,0.00
2.885,-0.10,0.49,0.84,0.12,0.12,-0.19,-0.04,-0.04,0.03,0.00
2.886,-0.10,0.47,0.88,0.12,0.12,-0.19,-0.04,-0.04,0.03,0.00
2.886,-0.10,0.47,0.88,-0.24,-0.15,0.09,-0.04,-0.04,0.03,0.00
2.924,-0.10,0.47,0.88,0.15,-0.00,0.18,-0.04,-0.04,0.03,0.00
2.964,-0.09,0.47,0.86,0.15,-0.00,0.18,-0.04,-0.04,0.03,0.00
2.965,-0.09,0.47,0.86,0.15,-0.00,0.18,-0.03,-0.03,0.06,0.00
2.965,-0.09,0.47,0.86,0.07,-0.04,-0.11,-0.03,-0.03,0.06,0.00
3.004,-0.09,0.47,0.86,0.08,-0.01,0.05,-0.03,-0.03,0.06,0.00
3.043,-0.12,0.47,0.84,0.08,-0.01,0.05,-0.03,-0.03,0.06,0.00
3.044,-0.12,0.47,0.84,0.08,-0.01,0.05,-0.04,-0.02,0.04,0.00
3.044,-0.12,0.47,0.84,-0.16,-0.00,-0.21,-0.04,-0.02,0.04,0.00
3.083,-0.11,0.49,0.89,-0.16,-0.00,-0.21,-0.04,-0.02,0.04,0.00
3.083,-0.11,0.49,0.89,-0.11,0.14,0.19,-0.04,-0.02,0.04,0.00
3.122,-0.11,0.49,0.89,-0.11,0.14,0.19,-0.03,-0.05,0.04,0.00
3.123,-0.11,0.49,0.89,-0.07,0.14,0.19,-0.03,-0.05,0.04,0.00
3.162,-0.11,0.49,0.89,-0.07,0.14,0.19,0.01,0.00,0.01,0.00
3.162,-0.10,0.48,0.90,-0.07,0.14,0.19,0.01,0.00,0.01,0.00
3.163,-0.10,0.48,0.90,-0.09,0.04,0.35,0.01,0.00,0.01,0.00
3.201,-0.10,0.48,0.90,0.14,0.07,0.10,0.01,0.00,0.01,0.00
3.241,-0.10,0.48,0.90,0.14,0.07,0.10,0.03,0.06,-0.02,0.00
3.242,-0.12,0.47,0.87,0.14,0.07,0.10,0.03,0.06,-0.02,0.00
3.242,-0.12,0.47,0.87,-0.09,-0.04,-0.03,0.03,0.06,-0.02,0.00
3.28,-0.12,0.46,0.85,-0.09,-0.04,-0.03,0.03,0.06,-0.02,0.00
3.281,-0.12,0.46,0.85,-0.21,-0.28,0.16,0.03,0.06,-0.02,0.00
3.32,-0.12,0.46,0.85,-0.21,-0.28,0.16,0.05,0.08,0.04,0.00
3.32,-0.12,0.46,0.85,-0.03,-0.13,-0.27,0.05,0.08,0.04,0.00
3.36,-0.12,0.46,0.85,-0.03,-0.13,-0.27,0.04,0.04,0.12,0.00
3.36,-0.13,0.47,0.86,-0.03,-0.13,-0.27,0.04,0.04,0.12,0.00
3.361,-0.13,0.47,0.86,-0.13,-0.17,0.14,0.04,0.04,0.12,0.00
3.399,-0.13,0.47,0.86,-0.14,-0.07,-0.23,0.04,0.04,0.12,0.00
3.439,-0.13,0.47,0.86,-0.14,-0.07,-0.23,0.02,0.02,0.17,0.00
3.439,-0.13,0.47,0.86,0.25,0.18,0.26,0.02,0.02,0.17,0.00
3.44,-0.08,0.50,0.88,0.25,0.18,0.26,0.02,0.02,0.17,0.00
3.478,-0.09,0.50,0.85,0.25,0.18,0.26,0.02,0.02,0.17,0.00
3.479,-0.09,0.50,0.85,0.21,0.15,-0.28,0.02,0.02,0.17,0.00
3.517,-0.09,0.50,0.85,0.21,0.15,-0.28,0.01,0.06,0.12,0.00
3.518,-0.09,0.50,0.85,0.09,0.14,-0.15,0.01,0.06,0.12,0.00
3.557,-0.09,0.50,0.85,0.09,0.14,-0.15,0.02,0.00,0.10,0.00
3.558,-0.09,0.50,0.87,0.09,0.14,-0.15,0.02,0.00,0.10,0.00
3.558,-0.09,0.50,0.87,-0.09,0.03,0.13,0.02,0.00,0.10,0.00
3.597,-0.09,0.50,0.87,0.12,0.12,0.06,0.02,0.00,0.10,0.00
3.639,-0.09,0.50,0.87,0.12,0.12,0.06,0.07,0.00,0.09,0.00
3.639,-0.06,0.52,0.85,0.12,0.12,0.06,0.07,0.00,0.09,0.00
3.64,-0.06,0.52,0.85,0.40,0.31,-0.09,0.07,0.00,0.09,0.00
3.676,-0.09,0.50,0.83,0.40,0.31,-0.09,0.07,0.00,0.09,0.00
3.676,-0.09,0.50,0.83,0.03,0.01,-0.00,0.07,0.00,0.09,0.00
3.715,-0.09,0.50,0.83,0.03,0.01,-0.00,0.06,0.04,-0.01,0.00
3.716,-0.09,0.50,0.83,-0.00,0.01,-0.23,0.06,0.04,-0.01,0.00
3.755,-0.12,0.48,0.86,-0.00,0.01,-0.23,0.06,0.04,-0.01,0.00
3.755,-0.12,0.48,0.86,-0.00,0.01,-0.23,0.03,0.02,-0.06,0.00
3.756,-0.12,0.48,0.86,-0.12,-0.23,-0.05,0.03,0.02,-0.06,0.00
3.794,-0.12,0.48,0.86,-0.21,-0.23,0.07,0.03,0.02,-0.06,0.00
3.834,-0.12,0.48,0.86,-0.21,-0.23,0.07,0.02,0.00,0.01,0.00
3.834,-0.10,0.47,0.86,-0.21,-0.23,0.07,0.02,0.00,0.01,0.00
3.835,-0.10,0.47,0.86,-0.07,-0.22,0.04,0.02,0.00,0.01,0.00
3.873,-0.10,0.47,0.86,-0.03,-0.25,0.03,0.02,0.00,0.01,0.00
3.913,-0.10,0.47,0.86,-0.03,-0.25,0.03,0.01,0.01,0.07,0.00
3.913,-0.08,0.49,0.83,-0.03,-0.25,0.03,0.01,0.01,0.07,0.00
3.914,-0.08,0.49,0.83,0.11,-0.05,-0.20,0.01,0.01,0.07,0.00
3.952,-0.08,0.49,0.83,0.11,-0.05,-0.20,-0.03,-0.00,0.05,0.00
3.953,-0.09,0.50,0.86,0.11,-0.05,-0.20,-0.03,-0.00,0.05,0.00
3.953,-0.09,0.50,0.86,0.15,0.08,0.09,-0.03,-0.00,0.05,0.00
3.991,-0.09,0.50,0.86,-0.04,0.04,0.03,-0.03,-0.00,0.05,0.00
4.031,-0.09,0.50,0.86,-0.04,0.04,0.03,-0.01,0.02,0.03,0.00
4.032,-0.09,0.50,0.86,-0.02,0.04,0.05,-0.01,0.02,0.03,0.00
4.032,-0.09,0.50,0.85,-0.02,0.04,0.05,-0.01,0.02,0.03,0.00
4.071,-0.09,0.50,0.85,-0.02,0.10,-0.10,-0.01,0.02,0.03,0.00
4.11,-0.09,0.50,0.85,-0.02,0.10,-0.10,0.00,-0.01,0.02,0.00
4.11,-0.07,0.51,0.86,-0.02,0.10,-0.10,0.00,-0.01,0.02,0.00
4.11,-0.07,0.51,0.86,0.20,0.08,0.03,0.00,-0.01,0.02,0.00
4.15,-0.09,0.51,0.89,0.20,0.08,0.03,0.00,-0.01,0.02,0.00
4.15,-0.09,0.51,0.89,0.20,0.08,0.03,-0.03,-0.02,-0.04,0.00
4.15,-0.09,0.51,0.89,0.10,0.19,-0.23,-0.03,-0.02,-0.04,0.00
4.189,-0.09,0.51,0.89,-0.01,0.04,0.46,-0.03,-0.02,-0.04,0.00
4.229,-0.09,0.51,0.89,-0.01,0.04,0.46,0.01,0.00,-0.04,0.00
4.229,-0.10,0.49,0.86,-0.01,0.04,0.46,0.01,0.00,-0.04,0.00
4.229,-0.10,0.49,0.86,-0.18,-0.10,0.15,0.01,0.00,-0.04,0.00
4.268,-0.10,0.49,0.86,0.03,-0.00,-0.07,0.01,0.00,-0.04,0.00
4.308,-0.09,0.49,0.84,0.03,-0.00,-0.07,0.01,0.00,-0.04,0.00
4.308,-0.09,0.49,0.84,0.03,-0.00,-0.07,0.03,0.00,-0.00,0.00
4.309,-0.09,0.49,0.84,0.05,-0.07,-0.13,0.03,0.00,-0.00,0.00
4.347,-0.10,0.49,0.84,0.05,-0.07,-0.13,0.03,0.00,-0.00,0.00
4.348,-0.10,0.49,0.84,0.10,0.02,-0.08,0.03,0.00,-0.00,0.00
4.387,-0.10,0.49,0.84,0.10,0.02,-0.08,0.00,0.01,-0.02,0.00
4.388,-0.10,0.49,0.84,-0.09,-0.05,-0.14,0.00,0.01,-0.02,0.00
4.426,-0.10,0.49,0.84,-0.09,-0.05,-0.14,-0.01,-0.03,-0.03,0.00
4.427,-0.10,0.50,0.87,-0.09,-0.05,-0.14,-0.01,-0.03,-0.03,0.00
4.427,-0.10,0.50,0.87,-0.14,-0.01,0.02,-0.01,-0.03,-0.03,0.00
4.466,-0.10,0.50,0.87,-0.02,0.01,0.18,-0.01,-0.03,-0.03,0.00
4.506,-0.10,0.50,0.87,-0.02,0.01,0.18,0.00,-0.00,-0.02,0.00
4.506,-0.09,0.50,0.87,-0.02,0.01,0.18,0.00,-0.00,-0.02,0.00
4.507,-0.09,0.50,0.87,0.04,0.06,0.16,0.00,-0.00,-0.02,0.00
4.545,-0.10,0.49,0.85,0.04,0.06,0.16,0.00,-0.00,-0.02,0.00
4.546,-0.10,0.49,0.85,-0.04,-0.05,-0.03,0.00,-0.00,-0.02,0.00
4.584,-0.10,0.49,0.85,-0.04,-0.05,-0.03,-0.02,0.02,-0.02,0.00
4.585,-0.10,0.49,0.85,-0.00,-0.02,-0.07,-0.02,0.02,-0.02,0.00
4.624,-0.09,0.50,0.86,-0.00,-0.02,-0.07,-0.02,0.02,-0.02,0.00
4.625,-0.09,0.50,0.86,-0.00,-0.02,-0.07,0.00,-0.00,-0.01,0.00
4.625,-0.09,0.50,0.86,0.06,0.00,-0.01,0.00,-0.00,-0.01,0.00
4.664,-0.09,0.50,0.86,0.06,0.05,-0.03,0.00,-0.00,-0.01,0.00
4.704,-0.10,0.49,0.84,0.06,0.05,-0.03,0.00,-0.00,-0.01,0.00
4.704,-0.10,0.49,0.84,-0.07,-0.04,-0.18,0.00,-0.00,-0.01,0.00
4.705,-0.10,0.49,0.84,-0.07,-0.04,-0.18,-0.02,0.00,-0.03,0.00
4.743,-0.08,0.50,0.80,-0.07,-0.04,-0.18,-0.02,0.00,-0.03,0.00
4.744,-0.08,0.50,0.80,-0.11,0.02,-0.15,-0.02,0.00,-0.03,0.00
4.783,-0.08,0.50,0.80,-0.11,0.02,-0.15,-0.00,-0.08,-0.02,0.00
4.784,-0.08,0.50,0.80,0.16,0.06,-0.49,-0.00,-0.08,-0.02,0.00
4.823,-0.08,0.50,0.80,0.16,0.06,-0.49,-0.07,-0.20,-0.08,0.00
4.823,-0.08,0.52,0.78,0.16,0.06,-0.49,-0.07,-0.20,-0.08,0.00
4.824,-0.08,0.52,0.78,0.11,0.21,-0.46,-0.07,-0.20,-0.08,0.00
4.862,-0.08,0.52,0.78,-0.09,0.24,-0.74,-0.07,-0.20,-0.08,0.00
4.902,-0.08,0.52,0.78,-0.09,0.24,-0.74,0.02,-0.94,-0.04,0.00
4.903,-0.08,0.52,0.83,-0.09,0.24,-0.74,0.02,-0.94,-0.04,0.00
4.903,-0.08,0.52,0.83,-1.58,-0.34,0.56,0.02,-0.94,-0.04,0.00
4.941,0.09,0.53,0.68,-1.58,-0.34,0.56,0.02,-0.94,-0.04,0.00
4.942,0.09,0.53,0.68,1.62,1.68,-1.60,0.02,-0.94,-0.04,0.00
4.98,0.09,0.53,0.68,1.62,1.68,-1.60,-0.16,-1.31,-0.31,0.00
4.981,0.09,0.53,0.68,0.52,0.46,-1.57,-0.16,-1.31,-0.31,0.00
5.019,0.09,0.53,0.68,0.52,0.46,-1.57,-0.62,-0.70,-0.81,0.00
5.02,0.07,0.41,0.64,0.52,0.46,-1.57,-0.62,-0.70,-0.81,0.00
5.021,0.07,0.41,0.64,-0.44,-0.92,-2.20,-0.62,-0.70,-0.81,0.00
5.06,0.07,0.41,0.64,0.60,0.05,-2.08,-0.62,-0.70,-0.81,0.00
5.099,0.07,0.41,0.64,0.60,0.05,-2.08,-1.18,-0.75,-0.80,0.00
5.1,0.08,0.25,0.67,0.60,0.05,-2.08,-1.18,-0.75,-0.80,0.00
5.1,0.08,0.25,0.67,0.14,-1.13,-1.42,-1.18,-0.75,-0.80,0.00
5.139,0.08,0.25,0.67,-0.35,-1.23,-3.20,-1.18,-0.75,-0.80,0.00
5.178,0.08,0.25,0.67,-0.35,-1.23,-3.20,-1.10,-1.78,0.18,0.00
5.179,0.08,0.25,0.67,0.22,-1.45,-1.53,-1.10,-1.78,0.18,0.00
5.179,0.24,0.16,0.73,0.22,-1.45,-1.53,-1.10,-1.78,0.18,0.00
5.221,0.24,0.16,0.73,0.22,-1.45,-1.53,0.77,-2.20,0.73,0.00
5.221,0.52,0.22,0.62,0.22,-1.45,-1.53,0.77,-2.20,0.73,0.00
5.222,0.52,0.22,0.62,2.09,-0.89,1.03,0.77,-2.20,0.73,0.00
5.258,0.52,0.22,0.62,1.53,-1.16,-3.12,0.77,-2.20,0.73,0.00
5.298,0.52,0.22,0.62,0.06,-2.66,-3.81,0.77,-2.20,0.73,0.00
5.298,0.55,-0.03,0.40,0.06,-2.66,-3.81,0.77,-2.20,0.73,0.00
5.299,0.55,-0.03,0.40,0.06,-2.66,-3.81,0.03,-2.35,0.57,0.00
5.337,0.55,-0.03,0.40,0.79,-4.05,-2.27,0.03,-2.35,0.57,0.00
5.376,0.55,-0.03,0.40,0.79,-4.05,-2.27,0.27,-4.15,1.77,0.00
5.377,0.94,-0.27,0.37,0.79,-4.05,-2.27,0.27,-4.15,1.77,0.00
5.377,0.94,-0.27,0.37,2.15,-4.80,-1.62,0.27,-4.15,1.77,0.00
5.416,0.95,-0.52,0.23,2.15,-4.80,-1.62,0.27,-4.15,1.77,0.00
5.417,0.95,-0.52,0.23,1.55,-4.55,-3.21,0.27,-4.15,1.77,0.00
5.455,0.95,-0.52,0.23,1.55,-4.55,-3.21,-1.15,-3.10,2.39,0.00
5.456,0.95,-0.52,0.23,0.84,-5.53,-1.14,-1.15,-3.10,2.39,0.00
5.495,0.95,-0.52,0.23,0.84,-5.53,-1.14,-2.00,-2.61,2.86,0.00
5.496,0.95,-0.52,0.23,3.80,-4.11,4.33,-2.00,-2.61,2.86,0.00
5.496,1.33,-0.52,0.68,3.80,-4.11,4.33,-2.00,-2.61,2.86,0.00
5.534,1.33,-0.52,0.68,4.78,-2.09,3.76,-2.00,-2.61,2.86,0.00
5.574,1.30,-0.47,0.57,4.78,-2.09,3.76,-2.00,-2.61,2.86,0.00
5.574,1.30,-0.47,0.57,4.78,-2.09,3.76,-2.32,-0.63,2.42,0.00
5.575,1.30,-0.47,0.57,3.96,-1.14,3.23,-2.32,-0.63,2.42,0.00
5.613,1.31,-0.34,0.72,3.96,-1.14,3.23,-2.32,-0.63,2.42,0.00
5.614,1.31,-0.34,0.72,5.54,0.53,5.23,-2.32,-0.63,2.42,0.00
5.653,1.31,-0.34,0.72,5.54,0.53,5.23,-2.56,-0.06,2.06,0.00
5.654,1.31,-0.34,0.72,4.52,1.90,5.73,-2.56,-0.06,2.06,0.00
5.692,1.31,-0.34,0.72,4.52,1.90,5.73,-1.81,-0.54,1.71,0.00
5.693,1.18,-0.27,0.77,4.52,1.90,5.73,-1.81,-0.54,1.71,0.00
5.693,1.18,-0.27,0.77,4.39,3.05,6.43,-1.81,-0.54,1.71,0.00
5.732,1.18,-0.27,0.77,3.55,3.45,7.24,-1.81,-0.54,1.71,0.00
5.771,1.18,-0.27,0.77,3.55,3.45,7.24,-0.91,-0.28,1.61,0.00
5.772,1.29,-0.11,0.71,3.55,3.45,7.24,-0.91,-0.28,1.61,0.00
5.773,1.29,-0.11,0.71,5.58,5.14,6.82,-0.91,-0.28,1.61,0.00
5.811,1.15,-0.19,0.44,5.58,5.14,6.82,-0.91,-0.28,1.61,0.00
5.811,1.15,-0.19,0.44,5.13,6.23,4.74,-0.91,-0.28,1.61,0.00
5.85,1.15,-0.19,0.44,5.13,6.23,4.74,-0.26,0.80,0.43,0.00
5.851,1.15,-0.19,0.44,4.04,4.50,3.13,-0.26,0.80,0.43,0.00
5.89,1.15,-0.19,0.44,4.04,4.50,3.13,-0.04,0.82,0.25,0.00
5.891,1.44,-0.14,0.63,4.04,4.50,3.13,-0.04,0.82,0.25,0.00
5.891,1.44,-0.14,0.63,6.09,5.47,-0.46,-0.04,0.82,0.25,0.00
5.929,1.44,-0.14,0.63,7.55,4.77,8.35,-0.04,0.82,0.25,0.00
5.969,1.44,-0.14,0.63,7.55,4.77,8.35,1.66,0.28,-0.67,0.00
5.969,1.46,-0.10,0.85,7.55,4.77,8.35,1.66,0.28,-0.67,0.00
5.97,1.46,-0.10,0.85,7.90,5.68,6.70,1.66,0.28,-0.67,0.00
6.008,1.46,-0.10,0.85,2.85,1.23,2.44,1.66,0.28,-0.67,0.00
6.009,1.07,-0.56,0.54,2.85,1.23,2.44,1.66,0.28,-0.67,0.00
6.048,1.07,-0.56,0.54,2.85,1.23,2.44,2.18,1.51,-1.92,0.00
6.049,1.07,-0.56,0.54,2.41,-1.66,1.03,2.18,1.51,-1.92,0.00
6.093,1.07,-0.56,0.54,2.41,-1.66,1.03,2.73,0.53,-1.82,0.00
6.094,1.23,-0.77,0.75,2.41,-1.66,1.03,2.73,0.53,-1.82,0.00
6.094,1.23,-0.77,0.75,3.64,-4.21,3.83,2.73,0.53,-1.82,0.00
6.187,1.08,-0.70,0.64,3.64,-4.21,3.83,2.73,0.53,-1.82,0.00
6.247,0.86,-0.66,0.58,3.64,-4.21,3.83,2.73,0.53,-1.82,0.00
6.248,0.86,-0.66,0.58,3.64,-4.21,3.83,1.79,0.66,-1.84,0.00
6.248,0.86,-0.66,0.58,3.82,-7.88,0.80,1.79,0.66,-1.84,0.00
6.306,0.71,-0.56,0.45,3.82,-7.88,0.80,1.79,0.66,-1.84,0.00
6.307,0.71,-0.56,0.45,1.63,-8.11,0.07,1.79,0.66,-1.84,0.00
6.365,0.71,-0.56,0.45,1.63,-8.11,0.07,1.69,0.43,-1.51,0.00
6.366,0.71,-0.56,0.45,-0.41,-8.51,-0.77,1.69,0.43,-1.51,0.00
6.425,0.71,-0.56,0.45,-0.41,-8.51,-0.77,1.36,-0.05,-1.32,0.00
6.426,0.47,-0.52,0.25,-0.41,-8.51,-0.77,1.36,-0.05,-1.32,0.00
6.426,0.47,-0.52,0.25,-0.99,-8.55,-2.11,1.36,-0.05,-1.32,0.00
6.484,0.47,-0.52,0.25,-0.99,-8.55,-2.11,0.82,-0.36,-0.48,0.00
6.485,0.44,-0.48,0.22,-0.99,-8.55,-2.11,0.82,-0.36,-0.48,0.00
6.485,0.44,-0.48,0.22,-3.46,-8.69,-2.70,0.82,-0.36,-0.48,0.00
6.544,0.44,-0.48,0.22,-3.46,-8.69,-2.70,0.47,-0.58,0.18,0.00
6.545,0.43,-0.44,-0.02,-3.46,-8.69,-2.70,0.47,-0.58,0.18,0.00
6.545,0.43,-0.44,-0.02,-3.21,-8.22,-2.77,0.47,-0.58,0.18,0.00
6.59,0.43,-0.44,-0.02,-3.21,-8.22,-2.77,-0.72,-0.83,1.29,0.00
6.591,0.64,-0.57,-0.06,-3.21,-8.22,-2.77,-0.72,-0.83,1.29,0.00
6.592,0.64,-0.57,-0.06,-3.89,-7.15,-4.73,-0.72,-0.83,1.29,0.00
6.642,0.93,-0.53,0.29,-3.89,-7.15,-4.73,-0.72,-0.83,1.29,0.00
6.643,0.93,-0.53,0.29,-2.44,-6.95,-4.93,-0.72,-0.83,1.29,0.00
6.702,0.93,-0.53,0.29,-2.44,-6.95,-4.93,-1.44,-1.47,2.37,0.00
6.703,0.93,-0.53,0.29,-0.83,-4.44,-0.73,-1.44,-1.47,2.37,0.00
6.761,1.39,-0.56,0.47,-0.83,-4.44,-0.73,-1.44,-1.47,2.37,0.00
6.762,1.39,-0.56,0.47,3.63,-3.46,2.54,-1.44,-1.47,2.37,0.00
6.762,1.39,-0.56,0.47,3.63,-3.46,2.54,-0.94,-1.90,2.94,0.00
6.781,1.39,-0.56,0.47,3.63,-3.46,2.54,-0.16,-1.96,2.76,0.00
6.782,1.31,-0.50,0.46,3.63,-3.46,2.54,-0.16,-1.96,2.76,0.00
6.84,1.18,-0.46,0.32,3.63,-3.46,2.54,-0.16,-1.96,2.76,0.00
6.84,1.18,-0.46,0.32,4.74,-1.47,3.46,-0.16,-1.96,2.76,0.00
6.899,1.18,-0.46,0.32,4.74,-1.47,3.46,-0.23,-0.70,2.63,0.00
6.9,1.18,-0.46,0.32,3.53,0.21,3.03,-0.23,-0.70,2.63,0.00
6.958,1.18,-0.46,0.32,4.21,1.92,1.91,-0.23,-0.70,2.63,0.00
6.959,1.22,-0.33,0.27,4.21,1.92,1.91,-0.23,-0.70,2.63,0.00
6.96,1.22,-0.33,0.27,4.21,1.92,1.91,-0.71,0.37,2.46,0.00
7.019,1.22,-0.33,0.27,4.21,1.92,1.91,-0.70,0.44,2.01,0.00
7.019,1.22,-0.13,0.29,4.21,1.92,1.91,-0.70,0.44,2.01,0.00
7.02,1.22,-0.13,0.29,4.95,4.18,1.65,-0.70,0.44,2.01,0.00
7.077,1.22,-0.13,0.29,4.95,4.18,1.65,-0.29,0.44,1.41,0.00
7.078,1.40,-0.08,0.30,4.95,4.18,1.65,-0.29,0.44,1.41,0.00
7.078,1.40,-0.08,0.30,5.83,6.38,1.90,-0.29,0.44,1.41,0.00
7.136,1.40,-0.08,0.30,5.83,6.38,1.90,0.22,0.14,0.44,0.00
7.137,1.54,0.04,0.10,5.83,6.38,1.90,0.22,0.14,0.44,0.00
7.137,1.54,0.04,0.10,7.66,6.72,1.80,0.22,0.14,0.44,0.00
7.195,1.54,0.04,0.10,7.66,6.72,1.80,-0.21,0.81,-0.92,0.00
7.196,1.54,0.04,0.10,8.65,7.61,-0.39,-0.21,0.81,-0.92,0.00
7.196,1.30,-0.20,0.12,8.65,7.61,-0.39,-0.21,0.81,-0.92,0.00
7.255,1.59,-0.34,0.33,8.65,7.61,-0.39,-0.21,0.81,-0.92,0.00
7.256,1.59,-0.34,0.33,6.77,5.80,-0.23,-0.21,0.81,-0.92,0.00
7.256,1.59,-0.34,0.33,6.77,5.80,-0.23,-0.21,1.13,-0.82,0.00
7.314,1.48,-0.66,0.37,6.77,5.80,-0.23,-0.21,1.13,-0.82,0.00
7.315,1.48,-0.66,0.37,6.77,5.80,-0.23,1.54,-1.24,-2.19,0.00
7.315,1.48,-0.66,0.37,5.81,2.26,-0.03,1.54,-1.24,-2.19,0.00
7.373,1.48,-0.91,0.42,5.81,2.26,-0.03,1.54,-1.24,-2.19,0.00
7.374,1.48,-0.91,0.42,7.45,0.12,2.26,1.54,-1.24,-2.19,0.00
7.433,1.48,-0.91,0.42,7.45,0.12,2.26,1.70,-1.71,-2.67,0.00
7.434,1.48,-0.91,0.42,4.66,-5.07,2.93,1.70,-1.71,-2.67,0.00
7.492,1.48,-0.91,0.42,4.66,-5.07,2.93,1.06,-1.02,-3.13,0.00
7.493,1.22,-0.95,0.32,4.66,-5.07,2.93,1.06,-1.02,-3.13,0.00
7.493,1.22,-0.95,0.32,3.99,-7.73,2.60,1.06,-1.02,-3.13,0.00
7.551,1.22,-0.95,0.32,3.99,-7.73,2.60,0.70,-0.53,-3.05,0.00
7.552,1.22,-0.95,0.32,1.19,-9.71,2.66,0.70,-0.53,-3.05,0.00
7.552,0.95,-0.89,0.34,1.19,-9.71,2.66,0.70,-0.53,-3.05,0.00
7.59,0.60,-0.71,0.17,1.19,-9.71,2.66,0.70,-0.53,-3.05,0.00
7.599,0.60,-0.71,0.17,-1.20,-10.28,2.59,0.70,-0.53,-3.05,0.00
7.633,0.60,-0.71,0.17,-1.20,-10.28,2.59,0.49,-0.24,-2.61,0.00
7.633,0.60,-0.71,0.17,-3.90,-9.66,1.14,0.49,-0.24,-2.61,0.00
7.689,0.50,-0.64,0.19,-3.90,-9.66,1.14,0.49,-0.24,-2.61,0.00
7.69,0.50,-0.64,0.19,-3.90,-9.66,1.14,0.23,-0.12,-1.91,0.00
7.69,0.50,-0.64,0.19,-4.22,-9.67,1.54,0.23,-0.12,-1.91,0.00
7.749,0.20,-0.58,-0.07,-4.22,-9.67,1.54,0.23,-0.12,-1.91,0.00
7.75,0.20,-0.58,-0.07,-4.22,-9.67,1.54,-0.09,0.17,-1.14,0.00
7.75,0.20,-0.58,-0.07,-6.70,-9.31,-1.24,-0.09,0.17,-1.14,0.00
7.828,0.20,-0.58,-0.07,-6.70,-9.31,-1.24,-0.75,0.08,0.30,0.00
7.829,0.20,-0.58,-0.07,-7.47,-7.65,-0.88,-0.75,0.08,0.30,0.00
7.829,0.25,-0.51,0.05,-7.47,-7.65,-0.88,-0.75,0.08,0.30,0.00
7.888,0.55,-0.42,0.02,-7.47,-7.65,-0.88,-0.75,0.08,0.30,0.00
7.889,0.55,-0.42,0.02,-7.47,-7.65,-0.88,-0.67,0.23,1.76,0.00
7.889,0.55,-0.42,0.02,-5.32,-6.29,-0.19,-0.67,0.23,1.76,0.00
7.947,0.55,-0.42,0.02,-5.32,-6.29,-0.19,-0.57,-0.14,2.66,0.00
7.948,1.26,-0.25,-0.13,-5.32,-6.29,-0.19,-0.57,-0.14,2.66,0.00
7.948,1.26,-0.25,-0.13,-0.43,-2.10,-1.77,-0.57,-0.14,2.66,0.00
8.006,1.26,-0.25,-0.13,-0.43,-2.10,-1.77,-0.08,-0.86,2.63,0.00
8.007,1.48,-0.28,0.02,-0.43,-2.10,-1.77,-0.08,-0.86,2.63,0.00
8.007,1.48,-0.28,0.02,4.02,-1.00,-0.98,-0.08,-0.86,2.63,0.00
8.066,1.48,-0.28,0.02,4.02,-1.00,-0.98,0.31,-1.16,2.19,0.00
8.067,1.32,-0.32,-0.02,4.02,-1.00,-0.98,0.31,-1.16,2.19,0.00
8.068,1.32,-0.32,-0.02,5.80,0.33,0.11,0.31,-1.16,2.19,0.00
8.145,1.32,-0.32,-0.02,5.80,0.33,0.11,0.21,-0.40,2.13,0.00
8.146,1.27,-0.27,0.05,5.80,0.33,0.11,0.21,-0.40,2.13,0.00
8.146,1.27,-0.27,0.05,3.63,0.86,0.62,0.21,-0.40,2.13,0.00
8.204,1.27,-0.27,0.05,4.12,2.31,0.93,0.21,-0.40,2.13,0.00
8.205,1.15,-0.22,-0.01,4.12,2.31,0.93,0.21,-0.40,2.13,0.00
8.205,1.15,-0.22,-0.01,4.12,2.31,0.93,0.26,-0.27,1.63,0.00
8.264,1.15,-0.22,-0.01,3.42,3.40,0.17,0.26,-0.27,1.63,0.00
8.265,1.20,-0.18,0.13,3.42,3.40,0.17,0.26,-0.27,1.63,0.00
8.266,1.20,-0.18,0.13,3.42,3.40,0.17,0.96,-0.74,1.37,0.00
8.322,1.34,-0.31,0.01,3.42,3.40,0.17,0.96,-0.74,1.37,0.00
8.323,1.34,-0.31,0.01,3.42,3.40,0.17,2.20,-2.04,1.01,0.00
8.324,1.34,-0.31,0.01,4.05,4.58,2.06,2.20,-2.04,1.01,0.00
8.383,1.44,-0.35,-0.17,4.05,4.58,2.06,2.20,-2.04,1.01,0.00
8.383,1.44,-0.35,-0.17,4.93,3.53,1.21,2.20,-2.04,1.01,0.00
8.384,1.44,-0.35,-0.17,4.93,3.53,1.21,1.97,-2.00,-0.10,0.00
8.441,1.44,-0.35,-0.17,7.38,3.01,-0.73,1.97,-2.00,-0.10,0.00
8.441,1.01,-0.41,0.21,7.38,3.01,-0.73,1.97,-2.00,-0.10,0.00
8.501,1.01,-0.41,0.21,3.68,1.66,1.18,1.97,-2.00,-0.10,0.00
8.501,1.01,-0.41,0.21,3.68,1.66,1.18,1.21,-1.35,-1.07,0.00
8.56,1.01,-0.41,0.21,1.01,0.73,3.85,1.21,-1.35,-1.07,0.00
8.561,0.97,-0.60,0.35,1.01,0.73,3.85,1.21,-1.35,-1.07,0.00
8.561,0.97,-0.60,0.35,1.01,0.73,3.85,1.70,-2.00,-1.29,0.00
8.589,0.97,-0.60,0.35,1.01,0.73,3.85,2.07,-2.01,-1.30,0.00
8.59,0.93,-0.65,0.43,1.01,0.73,3.85,2.07,-2.01,-1.30,0.00
8.599,0.93,-0.65,0.43,1.28,-1.65,5.91,2.07,-2.01,-1.30,0.00
8.638,0.83,-0.67,0.44,1.28,-1.65,5.91,2.07,-2.01,-1.30,0.00
8.639,0.83,-0.67,0.44,0.30,-2.04,6.14,2.07,-2.01,-1.30,0.00
8.699,0.83,-0.67,0.44,-0.37,-2.57,7.12,2.07,-2.01,-1.30,0.00
8.7,0.83,-0.67,0.44,-0.37,-2.57,7.12,2.03,-2.29,-1.25,0.00
8.758,0.83,-0.67,0.44,-0.37,-2.57,7.12,2.32,-2.14,-1.25,0.00
8.758,0.65,-0.75,0.80,-0.37,-2.57,7.12,2.32,-2.14,-1.25,0.00
8.759,0.65,-0.75,0.80,-1.84,-3.15,10.74,2.32,-2.14,-1.25,0.00
8.78,0.65,-0.75,0.80,-1.84,-3.15,10.74,3.66,-2.20,-0.82,0.00
8.781,0.41,-0.86,0.61,-1.84,-3.15,10.74,3.66,-2.20,-0.82,0.00
8.836,0.41,-0.86,0.61,-3.92,-3.54,8.92,3.66,-2.20,-0.82,0.00
8.896,0.41,-0.86,0.61,-3.92,-3.54,8.92,4.21,-2.19,0.03,0.00
8.897,0.66,-0.81,0.39,-3.92,-3.54,8.92,4.21,-2.19,0.03,0.00
8.897,0.66,-0.81,0.39,-2.27,-2.80,6.82,4.21,-2.19,0.03,0.00
8.955,0.66,-0.81,0.39,1.28,-0.71,3.21,4.21,-2.19,0.03,0.00
8.956,0.66,-0.81,0.39,1.28,-0.71,3.21,3.64,-1.59,0.20,0.00
8.957,0.99,-0.58,0.08,1.28,-0.71,3.21,3.64,-1.59,0.20,0.00
9.015,0.99,-0.58,0.08,1.28,-0.71,3.21,2.77,-1.50,-0.52,0.00
9.015,1.12,-0.54,0.21,1.28,-0.71,3.21,2.77,-1.50,-0.52,0.00
9.016,1.12,-0.54,0.21,3.19,0.84,2.49,2.77,-1.50,-0.52,0.00
9.073,1.12,-0.54,0.21,3.19,0.84,2.49,2.65,-1.31,-1.03,0.00
9.074,1.07,-0.54,0.27,3.19,0.84,2.49,2.65,-1.31,-1.03,0.00
9.074,1.07,-0.54,0.27,2.62,-0.04,3.39,2.65,-1.31,-1.03,0.00
9.133,1.07,-0.54,0.27,2.62,-0.04,3.39,2.67,-0.79,-1.03,0.00
9.134,1.27,-0.39,0.06,2.62,-0.04,3.39,2.67,-0.79,-1.03,0.00
9.134,1.27,-0.39,0.06,2.33,0.15,3.19,2.67,-0.79,-1.03,0.00
9.192,1.27,-0.39,0.06,2.33,0.15,3.19,1.93,-0.88,-1.71,0.00
9.193,1.27,-0.39,0.06,4.34,0.68,0.10,1.93,-0.88,-1.71,0.00
9.194,1.39,-0.53,-0.19,4.34,0.68,0.10,1.93,-0.88,-1.71,0.00
9.252,1.16,-0.58,0.06,4.34,0.68,0.10,1.93,-0.88,-1.71,0.00
9.252,1.16,-0.58,0.06,4.34,0.68,0.10,0.73,-0.36,-2.11,0.00
9.253,1.16,-0.58,0.06,4.22,-2.11,-1.54,0.73,-0.36,-2.11,0.00
9.311,0.95,-0.70,0.04,4.22,-2.11,-1.54,0.73,-0.36,-2.11,0.00
9.311,0.95,-0.70,0.04,4.22,-2.11,-1.54,0.42,-0.15,-2.27,0.00
9.312,0.95,-0.70,0.04,1.69,-3.58,0.99,0.42,-0.15,-2.27,0.00
9.37,0.95,-0.70,0.04,-0.19,-5.76,0.90,0.42,-0.15,-2.27,0.00
9.429,0.95,-0.70,0.04,-0.19,-5.76,0.90,0.40,-0.38,-2.00,0.00
9.43,0.65,-0.81,-0.01,-0.19,-5.76,0.90,0.40,-0.38,-2.00,0.00
9.43,0.65,-0.81,-0.01,-2.61,-7.71,0.90,0.40,-0.38,-2.00,0.00
9.489,0.65,-0.81,-0.01,-2.61,-7.71,0.90,-0.01,-0.30,-1.01,0.00
9.49,0.43,-0.70,-0.05,-2.61,-7.71,0.90,-0.01,-0.30,-1.01,0.00
9.491,0.43,-0.70,-0.05,-5.11,-7.59,0.20,-0.01,-0.30,-1.01,0.00
9.548,0.40,-0.55,0.10,-5.11,-7.59,0.20,-0.01,-0.30,-1.01,0.00
9.549,0.40,-0.55,0.10,-5.11,-7.59,0.20,-0.47,0.15,-0.12,0.00
9.549,0.40,-0.55,0.10,-5.68,-5.83,0.77,-0.47,0.15,-0.12,0.00
9.59,0.40,-0.55,0.10,-5.68,-5.83,0.77,0.37,-0.26,0.74,0.00
9.601,0.42,-0.62,-0.01,-5.68,-5.83,0.77,0.37,-0.26,0.74,0.00
9.602,0.42,-0.62,-0.01,-5.74,-4.86,2.21,0.37,-0.26,0.74,0.00
9.647,0.42,-0.62,-0.01,-5.74,-4.86,2.21,0.64,-0.43,1.69,0.00
9.648,0.72,-0.62,-0.28,-5.74,-4.86,2.21,0.64,-0.43,1.69,0.00
9.648,0.72,-0.62,-0.28,-4.43,-4.13,0.07,0.64,-0.43,1.69,0.00
9.707,0.92,-0.65,-0.24,-4.43,-4.13,0.07,0.64,-0.43,1.69,0.00
9.708,0.92,-0.65,-0.24,-1.53,-3.09,-2.19,0.64,-0.43,1.69,0.00
9.766,0.92,-0.65,-0.24,-1.53,-3.09,-2.19,-0.24,0.48,2.28,0.00
9.767,0.92,-0.65,-0.24,0.69,-1.99,-1.70,-0.24,0.48,2.28,0.00
9.825,0.92,-0.65,-0.24,0.69,-1.99,-1.70,-0.74,0.92,2.48,0.00
9.826,1.01,-0.72,-0.18,0.69,-1.99,-1.70,-0.74,0.92,2.48,0.00
9.826,1.01,-0.72,-0.18,2.12,-1.28,-1.49,-0.74,0.92,2.48,0.00
9.884,1.01,-0.72,-0.18,2.12,-1.28,-1.49,-1.17,1.08,2.93,0.00
9.885,1.18,-0.77,0.15,2.12,-1.28,-1.49,-1.17,1.08,2.93,0.00
9.886,1.18,-0.77,0.15,4.16,-0.79,1.79,-1.17,1.08,2.93,0.00
9.944,1.18,-0.77,0.15,8.81,2.10,1.63,-1.17,1.08,2.93,0.00
9.945,1.18,-0.77,0.15,8.81,2.10,1.63,-0.50,0.11,2.83,0.00
9.946,1.55,-0.52,0.12,8.81,2.10,1.63,-0.50,0.11,2.83,0.00
10.003,1.55,-0.52,0.12,8.81,2.10,1.63,0.34,-0.85,2.04,0.00
10.003,1.55,-0.52,0.12,11.53,3.90,3.65,0.34,-0.85,2.04,0.00
10.004,1.84,-0.27,0.36,11.53,3.90,3.65,0.34,-0.85,2.04,0.00
10.063,1.84,-0.27,0.36,11.53,3.90,3.65,1.24,-1.04,0.18,0.00
10.065,1.74,0.08,0.03,11.53,3.90,3.65,1.24,-1.04,0.18,0.00
10.065,1.74,0.08,0.03,12.99,8.57,1.88,1.24,-1.04,0.18,0.00
10.142,1.46,-0.20,0.03,12.99,8.57,1.88,1.24,-1.04,0.18,0.00
10.142,1.46,-0.20,0.03,8.88,7.01,0.34,1.24,-1.04,0.18,0.00
10.143,1.46,-0.20,0.03,8.88,7.01,0.34,0.65,-0.36,-1.49,0.00
10.2,1.46,-0.20,0.03,8.88,7.01,0.34,0.18,0.03,-2.69,0.00
10.201,1.46,-0.46,0.13,8.88,7.01,0.34,0.18,0.03,-2.69,0.00
10.201,1.46,-0.46,0.13,6.43,3.24,0.22,0.18,0.03,-2.69,0.00
10.26,1.38,-0.74,0.02,6.43,3.24,0.22,0.18,0.03,-2.69,0.00
10.261,1.38,-0.74,0.02,6.43,3.24,0.22,-0.02,0.90,-3.42,0.00
10.261,1.38,-0.74,0.02,5.19,-0.94,0.77,-0.02,0.90,-3.42,0.00
10.319,1.38,-0.74,0.02,5.19,-0.94,0.77,-0.13,0.95,-3.80,0.00
10.32,1.33,-0.86,0.10,5.19,-0.94,0.77,-0.13,0.95,-3.80,0.00
10.321,1.33,-0.86,0.10,3.82,-5.01,-0.95,-0.13,0.95,-3.80,0.00
10.379,1.33,-0.86,0.10,3.82,-5.01,-0.95,-0.26,1.89,-3.54,0.00
10.38,1.00,-0.85,0.22,3.82,-5.01,-0.95,-0.26,1.89,-3.54,0.00
10.38,1.00,-0.85,0.22,3.29,-8.15,-1.04,-0.26,1.89,-3.54,0.00
10.442,0.78,-0.71,0.13,3.29,-8.15,-1.04,-0.26,1.89,-3.54,0.00
10.442,0.78,-0.71,0.13,0.51,-9.79,-1.05,-0.26,1.89,-3.54,0.00
10.499,0.78,-0.71,0.13,0.51,-9.79,-1.05,0.12,1.96,-2.75,0.00
10.499,0.78,-0.71,0.13,-0.44,-9.68,-2.44,0.12,1.96,-2.75,0.00
10.556,0.57,-0.57,0.13,-0.44,-9.68,-2.44,0.12,1.96,-2.75,0.00
10.558,0.57,-0.57,0.13,-0.44,-9.68,-2.44,0.27,1.34,-1.77,0.00
10.559,0.57,-0.57,0.13,-2.31,-9.11,-3.05,0.27,1.34,-1.77,0.00
10.589,0.57,-0.57,0.13,-2.31,-9.11,-3.05,0.26,0.60,-0.76,0.00
10.599,0.49,-0.46,0.02,-2.31,-9.11,-3.05,0.26,0.60,-0.76,0.00
10.637,0.49,-0.46,0.02,-2.80,-8.06,-3.80,0.26,0.60,-0.76,0.00
10.695,0.49,-0.46,0.02,-2.80,-8.06,-3.80,-0.53,0.59,0.20,0.00
10.696,0.54,-0.24,0.06,-2.80,-8.06,-3.80,-0.53,0.59,0.20,0.00
10.696,0.54,-0.24,0.06,-3.34,-6.15,-4.64,-0.53,0.59,0.20,0.00
10.754,0.81,-0.24,0.24,-3.34,-6.15,-4.64,-0.53,0.59,0.20,0.00
10.755,0.81,-0.24,0.24,-2.22,-4.06,-4.16,-0.53,0.59,0.20,0.00
10.755,0.81,-0.24,0.24,-2.22,-4.06,-4.16,-0.94,-0.06,0.82,0.00
10.781,1.04,-0.11,0.48,-2.22,-4.06,-4.16,-0.94,-0.06,0.82,0.00
10.782,1.04,-0.11,0.48,0.41,-3.23,-1.81,-0.94,-0.06,0.82,0.00
10.833,1.04,-0.11,0.48,0.41,-3.23,-1.81,-1.16,0.17,0.92,0.00
10.833,1.04,-0.11,0.48,2.46,-1.01,-0.62,-1.16,0.17,0.92,0.00
10.893,1.04,-0.11,0.48,2.46,-1.01,-0.62,-1.69,0.77,0.63,0.00
10.893,0.84,-0.03,0.52,2.46,-1.01,-0.62,-1.69,0.77,0.63,0.00
10.894,0.84,-0.03,0.52,0.41,0.35,-0.52,-1.69,0.77,0.63,0.00
10.952,0.66,-0.12,0.77,0.41,0.35,-0.52,-1.69,0.77,0.63,0.00
10.953,0.66,-0.12,0.77,0.41,0.35,-0.52,-1.45,-0.06,0.63,0.00
10.953,0.66,-0.12,0.77,-1.28,0.28,2.66,-1.45,-0.06,0.63,0.00
11.011,0.66,-0.12,0.77,-1.28,0.28,2.66,-1.09,-0.72,1.09,0.00
11.012,0.72,-0.10,0.56,-1.28,0.28,2.66,-1.09,-0.72,1.09,0.00
11.013,0.72,-0.10,0.56,-1.40,1.37,1.02,-1.09,-0.72,1.09,0.00
11.07,0.72,-0.10,0.56,-0.36,1.10,2.42,-1.09,-0.72,1.09,0.00
11.071,0.80,-0.30,0.73,-0.36,1.10,2.42,-1.09,-0.72,1.09,0.00
11.071,0.80,-0.30,0.73,-0.36,1.10,2.42,-1.33,-0.99,1.17,0.00
11.149,0.80,-0.30,0.73,-0.36,1.10,2.42,-1.00,-1.07,1.69,0.00
11.15,0.80,-0.30,0.73,0.67,1.23,4.19,-1.00,-1.07,1.69,0.00
11.15,1.08,-0.22,0.70,0.67,1.23,4.19,-1.00,-1.07,1.69,0.00
11.209,1.08,-0.22,0.70,0.67,1.23,4.19,-0.81,-1.19,1.55,0.00
11.21,1.08,-0.22,0.70,4.16,3.13,4.54,-0.81,-1.19,1.55,0.00
11.211,1.34,-0.11,0.97,4.16,3.13,4.54,-0.81,-1.19,1.55,0.00
11.268,1.34,-0.11,0.97,4.16,3.13,4.54,0.30,-0.60,0.83,0.00
11.269,1.25,0.20,0.79,4.16,3.13,4.54,0.30,-0.60,0.83,0.00
11.269,1.25,0.20,0.79,5.73,5.34,7.19,0.30,-0.60,0.83,0.00
11.327,1.25,0.20,0.79,5.73,5.34,7.19,1.11,-0.43,-0.01,0.00
11.328,1.01,-0.03,0.56,5.73,5.34,7.19,1.11,-0.43,-0.01,0.00
11.329,1.01,-0.03,0.56,3.77,6.84,4.14,1.11,-0.43,-0.01,0.00
11.386,1.01,-0.03,0.56,3.77,6.84,4.14,2.14,-1.55,-0.18,0.00
11.387,1.24,-0.15,0.51,3.77,6.84,4.14,2.14,-1.55,-0.18,0.00
11.387,1.24,-0.15,0.51,1.56,3.84,2.61,2.14,-1.55,-0.18,0.00
11.446,1.24,-0.15,0.51,1.56,3.84,2.61,1.91,-1.19,-1.13,0.00
11.446,1.24,-0.15,0.51,3.30,2.10,2.44,1.91,-1.19,-1.13,0.00
11.447,1.50,-0.16,0.34,3.30,2.10,2.44,1.91,-1.19,-1.13,0.00
11.506,1.20,-0.35,0.42,3.30,2.10,2.44,1.91,-1.19,-1.13,0.00
11.507,1.20,-0.35,0.42,5.79,1.01,0.76,1.91,-1.19,-1.13,0.00
11.564,1.20,-0.35,0.42,5.79,1.01,0.76,0.63,0.18,-2.27,0.00
11.565,1.20,-0.35,0.42,3.00,-1.99,0.75,0.63,0.18,-2.27,0.00
11.589,1.20,-0.35,0.42,3.00,-1.99,0.75,0.90,-0.07,-2.45,0.00
11.59,0.99,-0.49,0.34,3.00,-1.99,0.75,0.90,-0.07,-2.45,0.00
11.643,0.99,-0.49,0.34,3.00,-1.99,0.75,0.81,-0.51,-2.25,0.00
11.644,0.85,-0.54,0.24,3.00,-1.99,0.75,0.81,-0.51,-2.25,0.00
11.645,0.85,-0.54,0.24,0.64,-5.11,1.30,0.81,-0.51,-2.25,0.00
11.705,0.85,-0.54,0.24,-0.23,-6.80,-0.04,0.81,-0.51,-2.25,0.00
11.763,0.70,-0.54,0.14,-0.23,-6.80,-0.04,0.81,-0.51,-2.25,0.00
11.763,0.70,-0.54,0.14,-0.23,-6.80,-0.04,0.33,-0.29,-1.62,0.00
11.764,0.70,-0.54,0.14,-1.63,-7.63,0.10,0.33,-0.29,-1.62,0.00
11.783,0.70,-0.54,0.14,-1.63,-7.63,0.10,-0.64,0.02,-0.54,0.00
11.784,0.68,-0.62,0.08,-1.63,-7.63,0.10,-0.64,0.02,-0.54,0.00
11.785,0.68,-0.62,0.08,-2.85,-7.82,-1.70,-0.64,0.02,-0.54,0.00
11.842,0.56,-0.37,0.12,-2.85,-7.82,-1.70,-0.64,0.02,-0.54,0.00
11.842,0.56,-0.37,0.12,-2.30,-7.91,-1.26,-0.64,0.02,-0.54,0.00
11.901,0.56,-0.37,0.12,-2.30,-7.91,-1.26,-0.82,-0.12,0.34,0.00
11.902,0.56,-0.37,0.12,-4.06,-4.47,-1.11,-0.82,-0.12,0.34,0.00
11.96,0.56,-0.37,0.12,-4.06,-4.47,-1.11,-0.72,-0.61,1.03,0.00
11.96,0.66,-0.42,0.05,-4.06,-4.47,-1.11,-0.72,-0.61,1.03,0.00
11.961,0.66,-0.42,0.05,-3.01,-4.20,-1.11,-0.72,-0.61,1.03,0.00
12.02,0.66,-0.42,0.05,-3.01,-4.20,-1.11,-0.50,-1.09,1.77,0.00
12.021,0.90,-0.52,0.11,-3.01,-4.20,-1.11,-0.50,-1.09,1.77,0.00
12.021,0.90,-0.52,0.11,-0.98,-4.25,0.04,-0.50,-1.09,1.77,0.00
12.079,0.90,-0.52,0.11,-0.98,-4.25,0.04,-0.60,-0.79,1.85,0.00
12.08,0.94,-0.43,0.16,-0.98,-4.25,0.04,-0.60,-0.79,1.85,0.00
12.08,0.94,-0.43,0.16,0.32,-1.87,0.56,-0.60,-0.79,1.85,0.00
12.142,0.92,-0.50,0.25,0.32,-1.87,0.56,-0.60,-0.79,1.85,0.00
12.143,0.92,-0.50,0.25,0.32,-1.87,0.56,-0.84,-0.03,2.05,0.00
12.143,0.92,-0.50,0.25,-0.25,-1.36,1.66,-0.84,-0.03,2.05,0.00
12.199,0.92,-0.50,0.25,-0.25,-1.36,1.66,-0.60,-0.02,2.35,0.00
12.2,1.02,-0.44,0.16,-0.25,-1.36,1.66,-0.60,-0.02,2.35,0.00
12.2,1.02,-0.44,0.16,1.30,0.03,1.23,-0.60,-0.02,2.35,0.00
12.257,1.02,-0.44,0.16,1.30,0.03,1.23,-0.63,0.09,2.59,0.00
12.257,1.22,-0.37,0.33,1.30,0.03,1.23,-0.63,0.09,2.59,0.00
12.258,1.22,-0.37,0.33,2.94,1.98,1.40,-0.63,0.09,2.59,0.00
12.316,1.22,-0.37,0.33,2.94,1.98,1.40,0.41,-0.34,2.57,0.00
12.317,1.45,-0.22,0.32,2.94,1.98,1.40,0.41,-0.34,2.57,0.00
12.317,1.45,-0.22,0.32,6.15,3.64,3.09,0.41,-0.34,2.57,0.00
12.375,1.45,-0.22,0.32,8.46,5.55,1.66,0.41,-0.34,2.57,0.00
12.376,1.72,-0.01,0.03,8.46,5.55,1.66,0.41,-0.34,2.57,0.00
12.434,1.72,-0.01,0.03,8.46,5.55,1.66,0.70,0.67,1.15,0.00
12.435,1.72,-0.01,0.03,10.24,6.86,-1.76,0.70,0.67,1.15,0.00
12.494,1.72,-0.01,0.03,10.24,6.86,-1.76,-0.22,0.90,-0.47,0.00
12.495,1.72,-0.01,0.03,6.21,3.90,-2.82,-0.22,0.90,-0.47,0.00
12.495,1.38,-0.26,-0.15,6.21,3.90,-2.82,-0.22,0.90,-0.47,0.00
12.553,1.38,-0.26,-0.15,6.21,3.90,-2.82,-0.55,0.12,-1.42,0.00
12.554,1.53,-0.26,0.24,6.21,3.90,-2.82,-0.55,0.12,-1.42,0.00
12.554,1.53,-0.26,0.24,7.12,3.07,0.93,-0.55,0.12,-1.42,0.00
12.599,1.31,-0.74,0.32,7.12,3.07,0.93,-0.55,0.12,-1.42,0.00
12.632,1.31,-0.74,0.32,4.34,-2.22,1.07,-0.55,0.12,-1.42,0.00
12.633,1.31,-0.74,0.32,4.34,-2.22,1.07,-0.55,1.09,-2.82,0.00
12.691,1.31,-0.74,0.32,4.34,-2.22,1.07,0.43,0.34,-2.75,0.00
12.692,1.31,-0.74,0.32,3.22,-6.57,1.16,0.43,0.34,-2.75,0.00
12.693,1.31,-0.92,0.29,3.22,-6.57,1.16,0.43,0.34,-2.75,0.00
12.75,1.31,-0.92,0.29,3.22,-6.57,1.16,0.40,0.25,-2.86,0.00
12.751,1.17,-0.83,0.20,3.22,-6.57,1.16,0.40,0.25,-2.86,0.00
12.751,1.17,-0.83,0.20,2.94,-7.81,-0.07,0.40,0.25,-2.86,0.00
12.781,0.92,-0.74,0.19,2.94,-7.81,-0.07,0.40,0.25,-2.86,0.00
12.83,0.92,-0.74,0.19,2.94,-7.81,-0.07,-0.12,1.16,-2.91,0.00
12.831,0.92,-0.74,0.19,0.57,-8.21,-1.23,-0.12,1.16,-2.91,0.00
12.889,0.61,-0.73,0.03,0.57,-8.21,-1.23,-0.12,1.16,-2.91,0.00
12.89,0.61,-0.73,0.03,0.57,-8.21,-1.23,0.22,1.17,-2.61,0.00
12.891,0.61,-0.73,0.03,-0.87,-9.14,-1.81,0.22,1.17,-2.61,0.00
12.949,0.61,-0.73,0.03,-0.87,-9.14,-1.81,0.24,-0.29,-1.61,0.00
12.95,0.42,-0.63,-0.12,-0.87,-9.14,-1.81,0.24,-0.29,-1.61,0.00
12.95,0.42,-0.63,-0.12,-3.65,-9.64,-3.77,0.24,-0.29,-1.61,0.00
13.008,0.42,-0.63,-0.12,-4.85,-8.65,-3.89,0.24,-0.29,-1.61,0.00
13.009,0.46,-0.55,-0.15,-4.85,-8.65,-3.89,0.24,-0.29,-1.61,0.00
13.009,0.46,-0.55,-0.15,-4.85,-8.65,-3.89,-0.49,-1.04,-0.54,0.00
13.067,0.46,-0.55,-0.15,-4.85,-8.65,-3.89,-2.00,-1.06,0.57,0.00
13.068,0.51,-0.72,0.06,-4.85,-8.65,-3.89,-2.00,-1.06,0.57,0.00
13.068,0.51,-0.72,0.06,-4.54,-7.51,-3.90,-2.00,-1.06,0.57,0.00
13.099,0.51,-0.72,0.06,-4.36,-7.90,-1.67,-2.00,-1.06,0.57,0.00
13.149,0.51,-0.72,0.06,-4.36,-7.90,-1.67,-2.24,-1.56,2.04,0.00
13.15,0.51,-0.72,0.06,-1.57,-5.24,1.63,-2.24,-1.56,2.04,0.00
13.15,0.93,-0.57,0.27,-1.57,-5.24,1.63,-2.24,-1.56,2.04,0.00
13.206,0.93,-0.57,0.27,1.02,-3.89,0.79,-2.24,-1.56,2.04,0.00
13.207,0.93,-0.57,0.27,1.02,-3.89,0.79,-2.93,-0.87,1.95,0.00
13.207,1.03,-0.69,0.16,1.02,-3.89,0.79,-2.93,-0.87,1.95,0.00
13.265,1.24,-0.88,0.41,1.02,-3.89,0.79,-2.93,-0.87,1.95,0.00
13.266,1.24,-0.88,0.41,1.02,-3.89,0.79,-4.54,0.78,2.04,0.00
13.266,1.24,-0.88,0.41,1.99,-4.82,2.18,-4.54,0.78,2.04,0.00
13.325,1.24,-0.88,0.41,1.99,-4.82,2.18,-4.64,0.72,1.36,0.00
13.326,1.34,-0.95,0.49,1.99,-4.82,2.18,-4.64,0.72,1.36,0.00
13.326,1.34,-0.95,0.49,4.31,-4.93,4.82,-4.64,0.72,1.36,0.00
13.384,1.12,-0.80,0.71,4.31,-4.93,4.82,-4.64,0.72,1.36,0.00
13.385,1.12,-0.80,0.71,4.31,-4.93,4.82,-5.21,1.43,0.52,0.00
13.385,1.12,-0.80,0.71,4.14,-4.77,5.51,-5.21,1.43,0.52,0.00
13.443,1.12,-0.80,0.71,4.14,-4.77,5.51,-4.58,2.39,-0.19,0.00
13.444,0.70,-0.66,0.75,4.14,-4.77,5.51,-4.58,2.39,-0.19,0.00
13.444,0.70,-0.66,0.75,1.00,-3.19,7.54,-4.58,2.39,-0.19,0.00
13.503,0.70,-0.66,0.75,-2.33,-2.19,7.17,-4.58,2.39,-0.19,0.00
13.561,0.70,-0.66,0.75,-2.33,-2.19,7.17,-2.83,1.31,0.07,0.00
13.562,0.54,-0.57,0.50,-2.33,-2.19,7.17,-2.83,1.31,0.07,0.00
13.562,0.54,-0.57,0.50,-3.36,-1.07,5.03,-2.83,1.31,0.07,0.00
13.588,0.54,-0.57,0.50,-3.36,-1.07,5.03,-2.01,0.43,0.70,0.00
13.589,0.70,-0.54,0.42,-3.36,-1.07,5.03,-2.01,0.43,0.70,0.00
13.64,0.85,-0.50,0.33,-3.36,-1.07,5.03,-2.01,0.43,0.70,0.00
13.641,0.85,-0.50,0.33,-1.63,-0.38,4.53,-2.01,0.43,0.70,0.00
13.7,0.85,-0.50,0.33,-1.63,-0.38,4.53,-2.03,0.82,1.00,0.00
13.701,0.85,-0.50,0.33,0.06,0.37,3.69,-2.03,0.82,1.00,0.00
13.759,0.85,-0.50,0.33,0.06,0.37,3.69,-2.34,1.56,1.18,0.00
13.759,0.97,-0.43,0.43,0.06,0.37,3.69,-2.34,1.56,1.18,0.00
13.76,0.97,-0.43,0.43,1.23,1.43,3.91,-2.34,1.56,1.18,0.00
13.78,0.97,-0.43,0.43,1.23,1.43,3.91,-1.46,1.54,1.08,0.00
13.781,1.10,-0.26,0.47,1.23,1.43,3.91,-1.46,1.54,1.08,0.00
13.839,1.30,-0.16,0.26,1.23,1.43,3.91,-1.46,1.54,1.08,0.00
13.84,1.30,-0.16,0.26,3.16,3.31,4.43,-1.46,1.54,1.08,0.00
13.899,1.30,-0.16,0.26,3.16,3.31,4.43,-0.13,1.06,0.85,0.00
13.9,1.30,-0.16,0.26,4.20,4.33,3.66,-0.13,1.06,0.85,0.00
13.957,1.32,-0.18,0.14,4.20,4.33,3.66,-0.13,1.06,0.85,0.00
13.958,1.32,-0.18,0.14,4.20,4.33,3.66,0.06,0.39,-0.12,0.00
13.958,1.32,-0.18,0.14,5.97,5.09,0.59,0.06,0.39,-0.12,0.00
14.017,1.06,-0.39,0.33,5.97,5.09,0.59,0.06,0.39,-0.12,0.00
14.018,1.06,-0.39,0.33,5.97,5.09,0.59,-0.02,0.84,-0.84,0.00
14.018,1.06,-0.39,0.33,4.56,3.57,0.78,-0.02,0.84,-0.84,0.00
14.075,1.04,-0.50,0.11,4.56,3.57,0.78,-0.02,0.84,-0.84,0.00
14.076,1.04,-0.50,0.11,4.56,3.57,0.78,0.87,0.04,-0.87,0.00
14.076,1.04,-0.50,0.11,2.29,1.35,1.68,0.87,0.04,-0.87,0.00
14.135,1.04,-0.50,0.11,2.29,1.35,1.68,0.52,-0.27,-0.99,0.00
14.136,1.04,-0.50,0.11,1.75,-0.05,-0.56,0.52,-0.27,-0.99,0.00
14.136,1.22,-0.30,0.21,1.75,-0.05,-0.56,0.52,-0.27,-0.99,0.00
14.194,1.22,-0.30,0.21,1.75,-0.05,-0.56,0.41,0.12,-1.61,0.00
14.195,1.15,-0.35,0.19,1.75,-0.05,-0.56,0.41,0.12,-1.61,0.00
14.195,1.15,-0.35,0.19,3.14,1.16,0.23,0.41,0.12,-1.61,0.00
14.253,1.15,-0.35,0.19,3.14,1.16,0.23,0.46,-0.28,-1.91,0.00
14.254,0.97,-0.43,0.06,3.14,1.16,0.23,0.46,-0.28,-1.91,0.00
14.254,0.97,-0.43,0.06,2.21,-0.31,0.40,0.46,-0.28,-1.91,0.00
14.313,0.97,-0.43,0.06,0.55,-1.91,-0.79,0.46,-0.28,-1.91,0.00
14.314,0.76,-0.47,0.08,0.55,-1.91,-0.79,0.46,-0.28,-1.91,0.00
14.315,0.76,-0.47,0.08,0.55,-1.91,-0.79,-0.05,-0.09,-1.71,0.00
14.372,0.68,-0.44,0.09,0.55,-1.91,-0.79,-0.05,-0.09,-1.71,0.00
14.373,0.68,-0.44,0.09,-1.39,-3.35,-1.13,-0.05,-0.09,-1.71,0.00
14.431,0.68,-0.44,0.09,-1.39,-3.35,-1.13,0.08,-0.32,-1.08,0.00
14.432,0.68,-0.44,0.09,-2.75,-3.74,-0.19,0.08,-0.32,-1.08,0.00
14.491,0.68,-0.44,0.09,-3.08,-3.76,-0.57,0.08,-0.32,-1.08,0.00
14.491,0.68,-0.52,0.05,-3.08,-3.76,-0.57,0.08,-0.32,-1.08,0.00
14.492,0.68,-0.52,0.05,-3.08,-3.76,-0.57,-0.03,-0.38,-0.42,0.00
14.553,0.68,-0.52,0.05,-3.08,-3.76,-0.57,-0.23,-0.25,0.52,0.00
14.554,0.74,-0.63,0.11,-3.08,-3.76,-0.57,-0.23,-0.25,0.52,0.00
14.554,0.74,-0.63,0.11,-3.13,-4.32,-0.27,-0.23,-0.25,0.52,0.00
14.589,0.74,-0.63,0.11,-3.13,-4.32,-0.27,-0.35,-0.16,1.37,0.00
14.589,0.86,-0.58,0.15,-3.13,-4.32,-0.27,-0.35,-0.16,1.37,0.00
14.599,0.86,-0.58,0.15,-2.01,-4.39,0.21,-0.35,-0.16,1.37,0.00
14.649,0.86,-0.58,0.15,-2.01,-4.39,0.21,-0.29,-0.08,1.59,0.00
14.65,0.96,-0.34,0.11,-2.01,-4.39,0.21,-0.29,-0.08,1.59,0.00
14.65,0.96,-0.34,0.11,-0.78,-2.73,0.68,-0.29,-0.08,1.59,0.00
14.708,1.07,-0.43,0.14,-0.78,-2.73,0.68,-0.29,-0.08,1.59,0.00
14.709,1.07,-0.43,0.14,0.26,0.48,0.58,-0.29,-0.08,1.59,0.00
14.767,1.07,-0.43,0.14,0.26,0.48,0.58,-0.34,-0.33,1.21,0.00
14.769,1.07,-0.43,0.14,1.68,-0.07,0.69,-0.34,-0.33,1.21,0.00
14.827,1.07,-0.43,0.14,1.68,-0.07,0.69,-0.79,0.46,0.72,0.00
14.828,0.87,-0.48,0.20,1.68,-0.07,0.69,-0.79,0.46,0.72,0.00
14.829,0.87,-0.48,0.20,0.84,-0.09,1.18,-0.79,0.46,0.72,0.00
14.886,0.87,-0.48,0.20,0.84,-0.09,1.18,-1.09,1.26,0.78,0.00
14.887,0.70,-0.42,0.15,0.84,-0.09,1.18,-1.09,1.26,0.78,0.00
14.887,0.70,-0.42,0.15,-1.25,0.60,0.58,-1.09,1.26,0.78,0.00
14.946,0.68,-0.46,0.11,-1.25,0.60,0.58,-1.09,1.26,0.78,0.00
14.947,0.68,-0.46,0.11,-1.15,1.47,0.17,-1.09,1.26,0.78,0.00
14.947,0.68,-0.46,0.11,-1.15,1.47,0.17,-0.90,0.87,0.95,0.00
15.005,0.89,-0.40,0.15,-1.15,1.47,0.17,-0.90,0.87,0.95,0.00
15.006,0.89,-0.40,0.15,-1.15,1.47,0.17,-0.68,0.44,1.47,0.00
15.006,0.89,-0.40,0.15,-0.41,1.62,0.08,-0.68,0.44,1.47,0.00
15.065,0.89,-0.40,0.15,-0.41,1.62,0.08,-0.64,0.43,1.38,0.00
15.065,1.13,-0.37,0.22,-0.41,1.62,0.08,-0.64,0.43,1.38,0.00
15.066,1.13,-0.37,0.22,2.68,3.17,0.44,-0.64,0.43,1.38,0.00
15.145,1.13,-0.37,0.22,4.87,3.54,1.30,-0.64,0.43,1.38,0.00
15.145,1.13,-0.37,0.22,4.87,3.54,1.30,-0.07,0.10,1.02,0.00
15.146,1.36,-0.29,0.28,4.87,3.54,1.30,-0.07,0.10,1.02,0.00
15.203,1.36,-0.29,0.28,4.87,3.54,1.30,0.34,-0.10,0.16,0.00
15.204,1.36,-0.29,0.28,6.90,4.34,1.54,0.34,-0.10,0.16,0.00
15.204,1.48,-0.40,0.24,6.90,4.34,1.54,0.34,-0.10,0.16,0.00
15.262,1.48,-0.40,0.24,7.73,2.99,1.10,0.34,-0.10,0.16,0.00
15.263,1.32,-0.30,0.06,7.73,2.99,1.10,0.34,-0.10,0.16,0.00
15.263,1.32,-0.30,0.06,7.73,2.99,1.10,0.41,-0.42,-0.52,0.00
15.321,1.32,-0.30,0.06,7.73,2.99,1.10,0.25,-0.77,-1.51,0.00
15.322,1.01,-0.46,0.27,7.73,2.99,1.10,0.25,-0.77,-1.51,0.00
15.322,1.01,-0.46,0.27,5.88,3.03,-0.59,0.25,-0.77,-1.51,0.00
15.38,1.01,-0.46,0.27,5.88,3.03,-0.59,1.14,-1.01,-1.55,0.00
15.381,1.05,-0.67,0.23,5.88,3.03,-0.59,1.14,-1.01,-1.55,0.00
15.381,1.05,-0.67,0.23,3.03,2.41,0.93,1.14,-1.01,-1.55,0.00
15.44,1.21,-0.64,0.16,3.03,2.41,0.93,1.14,-1.01,-1.55,0.00
15.44,1.21,-0.64,0.16,0.88,-1.64,2.55,1.14,-1.01,-1.55,0.00
15.499,1.21,-0.64,0.16,0.88,-1.64,2.55,1.05,-1.42,-1.73,0.00
15.5,1.21,-0.64,0.16,2.12,-2.47,0.72,1.05,-1.42,-1.73,0.00
15.56,1.21,-0.64,0.16,2.12,-2.47,0.72,0.34,-0.61,-2.23,0.00
15.561,1.01,-0.66,0.23,2.12,-2.47,0.72,0.34,-0.61,-2.23,0.00
15.561,1.01,-0.66,0.23,1.92,-3.91,2.00,0.34,-0.61,-2.23,0.00
15.589,1.01,-0.66,0.23,1.92,-3.91,2.00,-0.05,0.26,-2.25,0.00
15.599,0.74,-0.62,0.16,1.92,-3.91,2.00,-0.05,0.26,-2.25,0.00
15.599,0.74,-0.62,0.16,-0.74,-5.00,1.73,-0.05,0.26,-2.25,0.00
15.639,0.63,-0.66,0.13,-0.74,-5.00,1.73,-0.05,0.26,-2.25,0.00
15.64,0.63,-0.66,0.13,-2.99,-5.66,1.02,-0.05,0.26,-2.25,0.00
15.697,0.63,-0.66,0.13,-2.99,-5.66,1.02,-0.10,0.20,-1.88,0.00
15.698,0.63,-0.66,0.13,-3.66,-6.78,0.61,-0.10,0.20,-1.88,0.00
15.756,0.48,-0.70,0.14,-3.66,-6.78,0.61,-0.10,0.20,-1.88,0.00
15.756,0.48,-0.70,0.14,-3.66,-6.78,0.61,-0.21,0.27,-1.14,0.00
15.757,0.48,-0.70,0.14,-4.98,-7.22,0.51,-0.21,0.27,-1.14,0.00
15.781,0.48,-0.70,0.14,-4.98,-7.22,0.51,-0.33,0.34,0.07,0.00
15.782,0.49,-0.77,0.01,-4.98,-7.22,0.51,-0.33,0.34,0.07,0.00
15.835,0.49,-0.77,0.01,-4.73,-7.03,-0.58,-0.33,0.34,0.07,0.00
15.895,0.49,-0.77,0.01,-4.73,-7.03,-0.58,-0.59,0.11,1.58,0.00
15.895,0.57,-0.53,-0.01,-4.73,-7.03,-0.58,-0.59,0.11,1.58,0.00
15.896,0.57,-0.53,-0.01,-4.96,-4.67,-0.89,-0.59,0.11,1.58,0.00
15.957,0.57,-0.53,-0.01,-4.96,-4.67,-0.89,-0.64,-0.48,2.13,0.00
15.958,0.97,-0.50,-0.10,-4.96,-4.67,-0.89,-0.64,-0.48,2.13,0.00
15.958,0.97,-0.50,-0.10,-0.53,-1.36,-1.50,-0.64,-0.48,2.13,0.00
16.013,0.97,-0.50,-0.10,-0.53,-1.36,-1.50,-0.29,-0.77,2.13,0.00
16.014,1.08,-0.52,0.09,-0.53,-1.36,-1.50,-0.29,-0.77,2.13,0.00
16.014,1.08,-0.52,0.09,1.23,-1.23,0.57,-0.29,-0.77,2.13,0.00
16.072,1.08,-0.52,0.09,1.23,-1.23,0.57,0.10,-0.63,1.71,0.00
16.073,1.05,-0.51,-0.05,1.23,-1.23,0.57,0.10,-0.63,1.71,0.00
16.073,1.05,-0.51,-0.05,2.36,0.01,0.53,0.10,-0.63,1.71,0.00
16.13,1.05,-0.51,-0.05,2.36,0.01,0.53,-0.20,0.02,1.49,0.00
16.131,1.05,-0.51,-0.05,1.88,0.46,0.00,-0.20,0.02,1.49,0.00
16.132,0.92,-0.52,0.10,1.88,0.46,0.00,-0.20,0.02,1.49,0.00
16.19,0.92,-0.52,0.10,1.88,0.46,0.00,-0.33,0.74,1.47,0.00
16.19,0.96,-0.37,-0.13,1.88,0.46,0.00,-0.33,0.74,1.47,0.00
16.191,0.96,-0.37,-0.13,1.52,1.32,1.12,-0.33,0.74,1.47,0.00
16.251,0.99,-0.37,0.11,1.52,1.32,1.12,-0.33,0.74,1.47,0.00
16.251,0.99,-0.37,0.11,1.52,1.32,1.12,-1.28,1.38,1.20,0.00
16.251,0.99,-0.37,0.11,2.37,3.11,-1.49,-1.28,1.38,1.20,0.00
16.31,0.99,-0.37,0.11,2.37,3.11,-1.49,0.01,-0.11,1.13,0.00
16.31,1.16,-0.50,0.20,2.37,3.11,-1.49,0.01,-0.11,1.13,0.00
16.311,1.16,-0.50,0.20,2.98,3.62,0.85,0.01,-0.11,1.13,0.00
16.368,1.16,-0.50,0.20,4.55,2.46,2.24,0.01,-0.11,1.13,0.00
16.428,1.16,-0.50,0.20,4.55,2.46,2.24,0.85,-1.09,0.73,0.00
16.429,1.49,-0.37,0.04,4.55,2.46,2.24,0.85,-1.09,0.73,0.00
16.429,1.49,-0.37,0.04,7.63,3.75,0.54,0.85,-1.09,0.73,0.00
16.487,1.49,-0.37,0.04,7.63,3.75,0.54,0.35,-0.06,-0.46,0.00
16.488,1.38,-0.34,0.07,7.63,3.75,0.54,0.35,-0.06,-0.46,0.00
16.488,1.38,-0.34,0.07,7.61,3.01,0.51,0.35,-0.06,-0.46,0.00
16.546,1.38,-0.34,0.07,7.61,3.01,0.51,0.25,0.22,-1.57,0.00
16.547,1.10,-0.49,0.16,7.61,3.01,0.51,0.25,0.22,-1.57,0.00
16.548,1.10,-0.49,0.16,4.63,3.10,0.25,0.25,0.22,-1.57,0.00
16.589,1.10,-0.49,0.16,4.63,3.10,0.25,1.12,-0.78,-1.62,0.00
16.59,1.05,-0.77,0.15,4.63,3.10,0.25,1.12,-0.78,-1.62,0.00
16.597,1.05,-0.77,0.15,1.58,-0.79,1.61,1.12,-0.78,-1.62,0.00
16.646,1.05,-0.77,0.15,1.58,-0.79,1.61,1.33,-1.84,-1.57,0.00
16.647,1.30,-0.72,0.07,1.58,-0.79,1.61,1.33,-1.84,-1.57,0.00
16.647,1.30,-0.72,0.07,2.36,-3.20,1.20,1.33,-1.84,-1.57,0.00
16.706,1.30,-0.72,0.07,3.48,-3.33,1.01,1.33,-1.84,-1.57,0.00
16.707,1.07,-0.65,0.22,3.48,-3.33,1.01,1.33,-1.84,-1.57,0.00
16.764,1.07,-0.65,0.22,3.48,-3.33,1.01,0.19,-0.37,-2.42,0.00
16.765,1.07,-0.65,0.22,0.46,-4.41,2.17,0.19,-0.37,-2.42,0.00
16.824,1.07,-0.65,0.22,0.46,-4.41,2.17,0.20,0.53,-2.78,0.00
16.825,0.69,-0.71,0.09,0.46,-4.41,2.17,0.20,0.53,-2.78,0.00
16.826,0.69,-0.71,0.09,-3.05,-6.38,0.74,0.20,0.53,-2.78,0.00
16.883,0.69,-0.71,0.09,-3.05,-6.38,0.74,0.43,-0.04,-2.17,0.00
16.883,0.45,-0.66,0.06,-3.05,-6.38,0.74,0.43,-0.04,-2.17,0.00
16.883,0.45,-0.66,0.06,-5.29,-6.64,0.53,0.43,-0.04,-2.17,0.00
16.943,0.45,-0.66,0.06,-5.29,-6.64,0.53,0.31,-0.11,-1.07,0.00
16.944,0.35,-0.60,-0.04,-5.29,-6.64,0.53,0.31,-0.11,-1.07,0.00
16.945,0.35,-0.60,-0.04,-6.30,-6.46,-0.34,0.31,-0.11,-1.07,0.00
17.001,0.35,-0.60,-0.04,-6.30,-6.46,-0.34,-0.25,0.27,0.29,0.00
17.002,0.50,-0.54,-0.02,-6.30,-6.46,-0.34,-0.25,0.27,0.29,0.00
17.003,0.50,-0.54,-0.02,-5.87,-4.85,-0.59,-0.25,0.27,0.29,0.00
17.061,0.50,-0.54,-0.02,-5.87,-4.85,-0.59,-0.17,-0.13,1.46,0.00
17.062,0.82,-0.56,-0.06,-5.87,-4.85,-0.59,-0.17,-0.13,1.46,0.00
17.062,0.82,-0.56,-0.06,-2.81,-4.31,-0.61,-0.17,-0.13,1.46,0.00
17.141,0.82,-0.56,-0.06,-2.81,-4.31,-0.61,-0.09,-0.37,2.07,0.00
17.142,0.82,-0.56,-0.06,-0.26,-1.80,-0.08,-0.09,-0.37,2.07,0.00
17.142,1.15,-0.24,-0.01,-0.26,-1.80,-0.08,-0.09,-0.37,2.07,0.00
17.2,1.15,-0.24,-0.01,-0.26,-1.80,-0.08,0.19,-0.75,1.35,0.00
17.2,1.15,-0.24,-0.01,2.76,0.85,0.40,0.19,-0.75,1.35,0.00
17.2,1.13,-0.33,0.11,2.76,0.85,0.40,0.19,-0.75,1.35,0.00
17.26,1.11,-0.55,-0.01,2.76,0.85,0.40,0.19,-0.75,1.35,0.00
17.261,1.11,-0.55,-0.01,1.96,0.48,2.46,0.19,-0.75,1.35,0.00
17.261,1.11,-0.55,-0.01,1.96,0.48,2.46,1.27,-1.56,0.87,0.00
17.319,0.96,-0.51,-0.08,1.96,0.48,2.46,1.27,-1.56,0.87,0.00
17.32,0.96,-0.51,-0.08,2.20,-1.22,1.03,1.27,-1.56,0.87,0.00
17.32,0.96,-0.51,-0.08,2.20,-1.22,1.03,1.10,-0.94,0.89,0.00
17.378,0.88,-0.35,-0.14,2.20,-1.22,1.03,1.10,-0.94,0.89,0.00
17.379,0.88,-0.35,-0.14,2.20,-1.22,1.03,0.67,-0.09,0.86,0.00
17.379,0.88,-0.35,-0.14,1.01,-0.28,0.45,0.67,-0.09,0.86,0.00
17.436,0.88,-0.35,-0.14,0.64,1.97,-0.54,0.67,-0.09,0.86,0.00
17.495,0.88,-0.35,-0.14,0.64,1.97,-0.54,1.35,-0.77,0.95,0.00
17.496,0.88,-0.39,0.07,0.64,1.97,-0.54,1.35,-0.77,0.95,0.00
17.496,0.88,-0.39,0.07,0.51,2.03,1.54,1.35,-0.77,0.95,0.00
17.555,0.88,-0.39,0.07,0.51,2.03,1.54,2.70,-1.67,0.85,0.00
17.556,1.08,-0.45,-0.40,0.51,2.03,1.54,2.70,-1.67,0.85,0.00
17.556,1.08,-0.45,-0.40,2.59,2.45,-1.16,2.70,-1.67,0.85,0.00
17.59,1.18,-0.53,-0.37,2.59,2.45,-1.16,2.70,-1.67,0.85,0.00
17.634,1.18,-0.53,-0.37,3.85,1.38,-3.42,2.70,-1.67,0.85,0.00
17.635,1.18,-0.53,-0.37,3.85,1.38,-3.42,2.26,-1.99,0.59,0.00
17.694,1.18,-0.53,-0.37,3.85,1.38,-3.42,2.01,-2.65,0.05,0.00
17.694,1.19,-0.55,-0.27,3.85,1.38,-3.42,2.01,-2.65,0.05,0.00
17.694,1.19,-0.55,-0.27,4.83,1.18,-1.79,2.01,-2.65,0.05,0.00
17.753,1.19,-0.55,-0.27,4.83,1.18,-1.79,1.20,-2.52,-0.75,0.00
17.754,0.94,-0.50,-0.02,4.83,1.18,-1.79,1.20,-2.52,-0.75,0.00
17.754,0.94,-0.50,-0.02,3.97,1.61,-0.08,1.20,-2.52,-0.75,0.00
17.781,0.57,-0.75,0.32,3.97,1.61,-0.08,1.20,-2.52,-0.75,0.00
17.782,0.57,-0.75,0.32,1.26,0.77,2.96,1.20,-2.52,-0.75,0.00
17.832,0.57,-0.75,0.32,1.26,0.77,2.96,0.87,-2.26,-0.98,0.00
17.833,0.57,-0.75,0.32,-1.59,-1.23,6.36,0.87,-2.26,-0.98,0.00
17.891,0.57,-0.75,0.32,-1.59,-1.23,6.36,1.79,-2.62,-0.04,0.00
17.891,0.44,-0.75,0.36,-1.59,-1.23,6.36,1.79,-2.62,-0.04,0.00
17.891,0.44,-0.75,0.36,-1.86,-0.47,6.77,1.79,-2.62,-0.04,0.00
17.951,0.58,-0.67,0.32,-1.86,-0.47,6.77,1.79,-2.62,-0.04,0.00
17.952,0.58,-0.67,0.32,-0.05,0.86,5.80,1.79,-2.62,-0.04,0.00
17.952,0.58,-0.67,0.32,-0.05,0.86,5.80,1.86,-2.34,0.67,0.00
18.01,0.58,-0.67,0.32,1.74,1.27,6.94,1.86,-2.34,0.67,0.00
18.01,0.68,-0.70,0.48,1.74,1.27,6.94,1.86,-2.34,0.67,0.00
18.011,0.68,-0.70,0.48,1.74,1.27,6.94,1.99,-2.12,0.72,0.00
18.069,0.68,-0.70,0.48,1.74,1.27,6.94,2.80,-2.62,0.44,0.00
18.07,0.91,-0.64,0.29,1.74,1.27,6.94,2.80,-2.62,0.44,0.00
18.07,0.91,-0.64,0.29,3.43,1.83,5.63,2.80,-2.62,0.44,0.00
18.149,0.91,-0.64,0.29,3.43,1.83,5.63,2.16,-2.37,-0.49,0.00
18.15,0.91,-0.64,0.29,5.13,2.34,3.33,2.16,-2.37,-0.49,0.00
18.15,1.11,-0.62,0.30,5.13,2.34,3.33,2.16,-2.37,-0.49,0.00
18.207,1.11,-0.62,0.30,5.13,2.34,3.33,1.57,-1.70,-1.70,0.00
18.208,1.08,-0.82,0.48,5.13,2.34,3.33,1.57,-1.70,-1.70,0.00
18.208,1.08,-0.82,0.48,5.67,1.13,4.80,1.57,-1.70,-1.70,0.00
18.266,1.08,-0.82,0.48,3.37,-1.71,5.24,1.57,-1.70,-1.70,0.00
18.267,0.93,-1.01,0.43,3.37,-1.71,5.24,1.57,-1.70,-1.70,0.00
18.267,0.93,-1.01,0.43,3.37,-1.71,5.24,1.62,-0.78,-2.18,0.00
18.327,0.87,-1.00,0.25,3.37,-1.71,5.24,1.62,-0.78,-2.18,0.00
18.328,0.87,-1.00,0.25,3.37,-1.71,5.24,1.97,-0.83,-2.17,0.00
18.328,0.87,-1.00,0.25,1.34,-3.83,3.83,1.97,-0.83,-2.17,0.00
18.385,0.74,-1.05,0.11,1.34,-3.83,3.83,1.97,-0.83,-2.17,0.00
18.386,0.74,-1.05,0.11,1.34,-3.83,3.83,1.75,-1.01,-2.23,0.00
18.386,0.74,-1.05,0.11,0.14,-4.51,2.00,1.75,-1.01,-2.23,0.00
18.445,0.74,-1.05,0.11,0.14,-4.51,2.00,1.19,-1.00,-1.60,0.00
18.446,0.74,-1.05,0.11,-1.50,-5.94,1.00,1.19,-1.00,-1.60,0.00
18.446,0.63,-0.93,-0.04,-1.50,-5.94,1.00,1.19,-1.00,-1.60,0.00
18.506,0.63,-0.93,-0.04,-3.03,-5.66,-0.31,1.19,-1.00,-1.60,0.00
18.507,0.64,-0.73,-0.06,-3.03,-5.66,-0.31,1.19,-1.00,-1.60,0.00
18.564,0.64,-0.73,-0.06,-3.03,-5.66,-0.31,0.36,-0.50,-1.03,0.00
18.564,0.64,-0.73,-0.06,-2.90,-3.92,-0.31,0.36,-0.50,-1.03,0.00
18.589,0.60,-0.77,-0.07,-2.90,-3.92,-0.31,0.36,-0.50,-1.03,0.00
18.589,0.60,-0.77,-0.07,-2.90,-3.92,-0.31,-0.54,0.20,-0.79,0.00
18.643,0.60,-0.77,-0.07,-2.90,-3.92,-0.31,-0.56,-0.10,-0.27,0.00
18.644,0.54,-0.85,0.07,-2.90,-3.92,-0.31,-0.56,-0.10,-0.27,0.00
18.644,0.54,-0.85,0.07,-3.21,-3.95,-0.73,-0.56,-0.10,-0.27,0.00
18.703,0.54,-0.85,0.07,-3.81,-4.99,0.42,-0.56,-0.10,-0.27,0.00
18.761,0.67,-0.65,-0.03,-3.81,-4.99,0.42,-0.56,-0.10,-0.27,0.00
18.761,0.67,-0.65,-0.03,-3.29,-4.04,1.53,-0.56,-0.10,-0.27,0.00
18.762,0.67,-0.65,-0.03,-3.29,-4.04,1.53,0.45,-0.69,0.57,0.00
18.781,0.67,-0.65,-0.03,-3.29,-4.04,1.53,0.66,-0.48,0.79,0.00
18.782,0.67,-0.58,-0.19,-3.29,-4.04,1.53,0.66,-0.48,0.79,0.00
18.782,0.67,-0.58,-0.19,-2.04,-1.68,-0.26,0.66,-0.48,0.79,0.00
18.84,0.61,-0.60,-0.17,-2.04,-1.68,-0.26,0.66,-0.48,0.79,0.00
18.841,0.61,-0.60,-0.17,-2.00,-0.90,-1.13,0.66,-0.48,0.79,0.00
18.899,0.61,-0.60,-0.17,-2.00,-0.90,-1.13,0.38,-0.29,0.97,0.00
18.9,0.61,-0.60,-0.17,-2.11,-0.52,-0.76,0.38,-0.29,0.97,0.00
18.959,0.61,-0.60,-0.17,-2.11,-0.52,-0.76,0.20,-0.03,1.40,0.00
18.96,0.68,-0.63,-0.01,-2.11,-0.52,-0.76,0.20,-0.03,1.40,0.00
18.96,0.68,-0.63,-0.01,-0.89,-0.07,0.50,0.20,-0.03,1.40,0.00
19.019,0.68,-0.63,-0.01,-0.89,-0.07,0.50,-0.05,0.61,1.65,0.00
19.019,0.89,-0.62,-0.12,-0.89,-0.07,0.50,-0.05,0.61,1.65,0.00
19.02,0.89,-0.62,-0.12,1.66,0.92,-0.77,-0.05,0.61,1.65,0.00
19.078,1.15,-0.58,0.03,1.66,0.92,-0.77,-0.05,0.61,1.65,0.00
19.079,1.15,-0.58,0.03,1.66,0.92,-0.77,-0.32,0.42,1.74,0.00
19.079,1.15,-0.58,0.03,4.31,1.46,0.34,-0.32,0.42,1.74,0.00
19.137,1.15,-0.58,0.03,4.31,1.46,0.34,-0.24,0.41,1.24,0.00
19.138,1.32,-0.52,0.05,4.31,1.46,0.34,-0.24,0.41,1.24,0.00
19.139,1.32,-0.52,0.05,6.55,2.83,0.90,-0.24,0.41,1.24,0.00
19.196,1.32,-0.52,0.05,6.55,2.83,0.90,-0.03,0.39,0.59,0.00
19.196,1.32,-0.52,0.05,7.68,3.11,1.09,-0.03,0.39,0.59,0.00
19.197,1.48,-0.25,0.10,7.68,3.11,1.09,-0.03,0.39,0.59,0.00
19.257,1.31,-0.34,0.11,7.68,3.11,1.09,-0.03,0.39,0.59,0.00
19.258,1.31,-0.34,0.11,7.68,3.11,1.09,0.17,0.38,-1.09,0.00
19.258,1.31,-0.34,0.11,7.48,5.62,0.42,0.17,0.38,-1.09,0.00
19.314,1.31,-0.34,0.11,7.48,5.62,0.42,0.47,0.60,-2.16,0.00
19.315,1.50,-0.56,0.21,7.48,5.62,0.42,0.47,0.60,-2.16,0.00
19.315,1.50,-0.56,0.21,5.05,1.80,1.14,0.47,0.60,-2.16,0.00
19.374,1.57,-0.74,0.43,5.05,1.80,1.14,0.47,0.60,-2.16,0.00
19.374,1.57,-0.74,0.43,6.49,-1.29,0.59,0.47,0.60,-2.16,0.00
19.434,1.57,-0.74,0.43,6.41,-4.61,0.69,0.47,0.60,-2.16,0.00
19.435,1.57,-0.74,0.43,6.41,-4.61,0.69,-0.09,2.11,-3.20,0.00
19.492,1.57,-0.74,0.43,6.41,-4.61,0.69,0.21,4.25,-3.60,0.00
19.493,1.31,-0.86,0.67,6.41,-4.61,0.69,0.21,4.25,-3.60,0.00
19.493,1.31,-0.86,0.67,4.92,-7.57,0.50,0.21,4.25,-3.60,0.00
19.552,1.31,-0.86,0.67,4.92,-7.57,0.50,1.31,4.27,-2.99,0.00
19.553,0.82,-0.80,0.36,4.92,-7.57,0.50,1.31,4.27,-2.99,0.00
19.554,0.82,-0.80,0.36,1.84,-8.80,-3.85,1.31,4.27,-2.99,0.00
19.589,0.58,-0.65,0.27,1.84,-8.80,-3.85,1.31,4.27,-2.99,0.00
19.631,0.58,-0.65,0.27,1.84,-8.80,-3.85,1.75,2.81,-1.99,0.00
19.632,0.58,-0.65,0.27,0.53,-8.59,-5.11,1.75,2.81,-1.99,0.00
19.69,0.58,-0.65,0.27,-1.62,-7.75,-7.27,1.75,2.81,-1.99,0.00
19.691,0.58,-0.65,0.27,-1.62,-7.75,-7.27,1.53,1.25,-1.08,0.00
19.691,0.32,-0.45,0.02,-1.62,-7.75,-7.27,1.53,1.25,-1.08,0.00
19.75,0.32,-0.45,0.02,-1.62,-7.75,-7.27,0.35,0.15,-0.32,0.00
19.751,0.32,-0.45,0.02,-1.72,-5.76,-7.17,0.35,0.15,-0.32,0.00
19.751,0.46,-0.38,0.10,-1.72,-5.76,-7.17,0.35,0.15,-0.32,0.00
19.829,0.46,-0.38,0.10,-1.72,-5.76,-7.17,-1.14,-0.88,0.30,0.00
19.83,0.49,-0.42,0.25,-1.72,-5.76,-7.17,-1.14,-0.88,0.30,0.00
19.83,0.49,-0.42,0.25,-1.11,-5.99,-6.89,-1.14,-0.88,0.30,0.00
19.888,0.74,-0.16,0.62,-1.11,-5.99,-6.89,-1.14,-0.88,0.30,0.00
19.888,0.74,-0.16,0.62,-1.11,-5.99,-6.89,-1.09,-2.18,0.85,0.00
19.888,0.74,-0.16,0.62,-1.09,-3.75,-1.95,-1.09,-2.18,0.85,0.00
19.948,0.74,-0.16,0.62,-1.09,-3.75,-1.95,-0.55,-3.26,1.19,0.00
19.949,0.68,-0.47,0.27,-1.09,-3.75,-1.95,-0.55,-3.26,1.19,0.00
19.95,0.68,-0.47,0.27,-0.91,-1.73,-0.05,-0.55,-3.26,1.19,0.00
20.007,0.68,-0.47,0.27,-0.91,-1.73,-0.05,-1.10,-2.84,1.94,0.00
20.008,0.95,-0.67,0.27,-0.91,-1.73,-0.05,-1.10,-2.84,1.94,0.00
20.008,0.95,-0.67,0.27,-1.99,-3.58,-1.01,-1.10,-2.84,1.94,0.00
20.068,0.95,-0.67,0.27,-1.99,-3.58,-1.01,-2.05,-1.66,2.11,0.00
20.069,1.00,-0.80,0.30,-1.99,-3.58,-1.01,-2.05,-1.66,2.11,0.00
20.069,1.00,-0.80,0.30,0.50,-3.64,0.18,-2.05,-1.66,2.11,0.00
20.099,1.00,-0.80,0.30,1.30,-3.49,1.18,-2.05,-1.66,2.11,0.00
20.145,1.00,-0.80,0.30,1.30,-3.49,1.18,-2.30,-0.76,2.39,0.00
20.146,1.01,-0.72,0.47,1.30,-3.49,1.18,-2.30,-0.76,2.39,0.00
20.146,1.01,-0.72,0.47,2.18,-1.43,4.03,-2.30,-0.76,2.39,0.00
20.205,1.01,-0.72,0.47,2.18,-1.43,4.03,-1.54,-0.97,2.64,0.00
20.205,1.01,-0.72,0.47,3.11,0.27,4.74,-1.54,-0.97,2.64,0.00
20.206,1.12,-0.61,0.53,3.11,0.27,4.74,-1.54,-0.97,2.64,0.00
20.265,1.29,-0.51,0.46,3.11,0.27,4.74,-1.54,-0.97,2.64,0.00
20.266,1.29,-0.51,0.46,3.11,0.27,4.74,-0.39,-0.75,2.24,0.00
20.266,1.29,-0.51,0.46,6.53,2.43,5.82,-0.39,-0.75,2.24,0.00
20.323,1.29,-0.46,0.28,6.53,2.43,5.82,-0.39,-0.75,2.24,0.00
20.324,1.29,-0.46,0.28,7.10,3.19,3.71,-0.39,-0.75,2.24,0.00
20.325,1.29,-0.46,0.28,7.10,3.19,3.71,0.04,-0.47,1.82,0.00
20.383,1.35,-0.37,0.35,7.10,3.19,3.71,0.04,-0.47,1.82,0.00
20.384,1.35,-0.37,0.35,7.10,3.19,3.71,0.44,-0.69,1.18,0.00
20.384,1.35,-0.37,0.35,7.74,4.25,3.19,0.44,-0.69,1.18,0.00
20.442,1.39,-0.36,0.14,7.74,4.25,3.19,0.44,-0.69,1.18,0.00
20.443,1.39,-0.36,0.14,8.36,4.58,3.27,0.44,-0.69,1.18,0.00
20.501,1.39,-0.36,0.14,8.36,4.58,3.27,1.17,-0.69,0.25,0.00
20.502,1.39,-0.36,0.14,8.09,4.59,0.58,1.17,-0.69,0.25,0.00
20.561,1.39,-0.36,0.14,8.09,4.59,0.58,0.84,-0.63,-1.17,0.00
20.561,1.35,-0.31,0.10,8.09,4.59,0.58,0.84,-0.63,-1.17,0.00
20.562,1.35,-0.31,0.10,6.51,4.13,0.35,0.84,-0.63,-1.17,0.00
20.588,1.35,-0.31,0.10,6.51,4.13,0.35,0.96,-0.81,-2.27,0.00
20.601,1.13,-0.88,0.23,6.51,4.13,0.35,0.96,-0.81,-2.27,0.00
20.64,1.27,-1.13,0.19,6.51,4.13,0.35,0.96,-0.81,-2.27,0.00
20.64,1.27,-1.13,0.19,3.18,-2.02,1.92,0.96,-0.81,-2.27,0.00
20.698,1.27,-1.13,0.19,3.18,-2.02,1.92,1.67,-2.18,-2.32,0.00
20.699,1.27,-1.13,0.19,3.68,-6.14,2.02,1.67,-2.18,-2.32,0.00
20.759,1.27,-1.13,0.19,3.68,-6.14,2.02,1.01,-1.60,-2.70,0.00
20.76,1.19,-0.96,0.19,3.68,-6.14,2.02,1.01,-1.60,-2.70,0.00
20.761,1.19,-0.96,0.19,2.82,-6.59,2.27,1.01,-1.60,-2.70,0.00
20.781,1.19,-0.96,0.19,2.82,-6.59,2.27,0.15,-0.04,-3.23,0.00
20.781,0.86,-0.92,0.09,2.82,-6.59,2.27,0.15,-0.04,-3.23,0.00
20.838,0.86,-0.92,0.09,0.23,-7.30,1.69,0.15,-0.04,-3.23,0.00
20.897,0.51,-0.84,0.05,0.23,-7.30,1.69,0.15,-0.04,-3.23,0.00
20.898,0.51,-0.84,0.05,0.23,-7.30,1.69,-0.02,0.17,-2.83,0.00
20.898,0.51,-0.84,0.05,-3.52,-8.68,0.90,-0.02,0.17,-2.83,0.00
20.955,0.51,-0.84,0.05,-3.52,-8.68,0.90,0.27,-0.60,-1.97,0.00
20.956,0.36,-0.73,-0.02,-3.52,-8.68,0.90,0.27,-0.60,-1.97,0.00
20.956,0.36,-0.73,-0.02,-5.35,-8.30,0.88,0.27,-0.60,-1.97,0.00
21.015,0.22,-0.67,-0.13,-5.35,-8.30,0.88,0.27,-0.60,-1.97,0.00
21.016,0.22,-0.67,-0.13,-5.35,-8.30,0.88,0.00,-0.63,-0.84,0.00
21.016,0.22,-0.67,-0.13,-6.56,-8.02,0.57,0.00,-0.63,-0.84,0.00
21.076,0.22,-0.67,-0.13,-6.56,-8.02,0.57,-0.66,-0.09,0.65,0.00
21.077,0.21,-0.78,-0.05,-6.56,-8.02,0.57,-0.66,-0.09,0.65,0.00
21.078,0.21,-0.78,-0.05,-7.56,-7.10,-0.40,-0.66,-0.09,0.65,0.00
21.134,0.21,-0.78,-0.05,-7.56,-7.10,-0.40,-0.77,0.22,2.45,0.00
21.135,0.42,-0.90,-0.10,-7.56,-7.10,-0.40,-0.77,0.22,2.45,0.00
21.135,0.42,-0.90,-0.10,-7.42,-6.94,0.38,-0.77,0.22,2.45,0.00
21.192,0.42,-0.90,-0.10,-7.42,-6.94,0.38,-0.80,0.06,3.69,0.00
21.193,0.42,-0.90,-0.10,-5.46,-6.18,-0.17,-0.80,0.06,3.69,0.00
21.193,1.06,-0.97,-0.08,-5.46,-6.18,-0.17,-0.80,0.06,3.69,0.00
21.252,1.06,-0.97,-0.08,-5.46,-6.18,-0.17,-0.33,-0.64,3.38,0.00
21.253,1.50,-0.81,-0.11,-5.46,-6.18,-0.17,-0.33,-0.64,3.38,0.00
21.253,1.50,-0.81,-0.11,0.65,-4.47,0.39,-0.33,-0.64,3.38,0.00
21.312,1.50,-0.81,-0.11,6.54,-3.20,0.39,-0.33,-0.64,3.38,0.00
21.312,1.50,-0.81,-0.11,6.54,-3.20,0.39,-0.87,0.33,1.81,0.00
21.313,1.25,-0.66,0.04,6.54,-3.20,0.39,-0.87,0.33,1.81,0.00
21.371,0.80,-0.78,0.07,6.54,-3.20,0.39,-0.87,0.33,1.81,0.00
21.372,0.80,-0.78,0.07,6.97,0.22,1.29,-0.87,0.33,1.81,0.00
21.431,0.80,-0.78,0.07,6.97,0.22,1.29,-1.66,2.21,1.23,0.00
21.431,0.80,-0.78,0.07,2.97,-0.57,1.71,-1.66,2.21,1.23,0.00
21.49,0.80,-0.78,0.07,2.97,-0.57,1.71,-1.56,1.97,1.64,0.00
21.49,0.67,-0.69,0.10,2.97,-0.57,1.71,-1.56,1.97,1.64,0.00
21.491,0.67,-0.69,0.10,0.82,0.02,1.70,-1.56,1.97,1.64,0.00
21.549,0.67,-0.69,0.10,0.82,0.02,1.70,-0.75,0.58,1.87,0.00
21.55,0.82,-0.62,0.08,0.82,0.02,1.70,-0.75,0.58,1.87,0.00
21.55,0.82,-0.62,0.08,1.06,1.49,2.32,-0.75,0.58,1.87,0.00
21.589,0.82,-0.62,0.08,1.06,1.49,2.32,-0.60,0.22,1.85,0.00
21.599,1.03,-0.69,0.05,1.06,1.49,2.32,-0.60,0.22,1.85,0.00
21.6,1.03,-0.69,0.05,3.66,2.31,1.88,-0.60,0.22,1.85,0.00
21.648,1.03,-0.69,0.05,3.66,2.31,1.88,-0.41,0.18,1.32,0.00
21.649,1.31,-0.40,0.14,3.66,2.31,1.88,-0.41,0.18,1.32,0.00
21.649,1.31,-0.40,0.14,6.11,1.99,1.97,-0.41,0.18,1.32,0.00
21.706,1.26,-0.64,0.07,6.11,1.99,1.97,-0.41,0.18,1.32,0.00
21.707,1.26,-0.64,0.07,8.59,4.66,2.69,-0.41,0.18,1.32,0.00
21.766,1.26,-0.64,0.07,8.59,4.66,2.69,-0.08,0.62,-0.19,0.00
21.767,1.26,-0.64,0.07,8.06,3.04,2.38,-0.08,0.62,-0.19,0.00
21.825,1.26,-0.64,0.07,8.06,3.04,2.38,0.52,-0.04,-0.88,0.00
21.826,1.33,-0.61,-0.05,8.06,3.04,2.38,0.52,-0.04,-0.88,0.00
21.826,1.33,-0.61,-0.05,7.34,1.39,0.23,0.52,-0.04,-0.88,0.00
21.884,1.33,-0.61,-0.05,7.34,1.39,0.23,0.59,-0.12,-2.28,0.00
21.885,1.23,-0.71,-0.08,7.34,1.39,0.23,0.59,-0.12,-2.28,0.00
21.886,1.23,-0.71,-0.08,5.93,1.95,0.26,0.59,-0.12,-2.28,0.00
21.945,1.23,-0.71,-0.08,5.93,1.95,0.26,0.73,-0.50,-3.11,0.00
21.946,1.01,-1.30,-0.03,5.93,1.95,0.26,0.73,-0.50,-3.11,0.00
21.947,1.01,-1.30,-0.03,3.27,-3.97,-0.01,0.73,-0.50,-3.11,0.00
22.003,1.01,-1.30,-0.03,0.67,-8.76,1.15,0.73,-0.50,-3.11,0.00
22.004,0.96,-1.32,-0.03,0.67,-8.76,1.15,0.73,-0.50,-3.11,0.00
22.004,0.96,-1.32,-0.03,0.67,-8.76,1.15,1.41,-2.20,-2.74,0.00
22.064,0.96,-1.32,-0.03,0.67,-8.76,1.15,0.85,-1.95,-2.49,0.00
22.064,0.80,-1.06,-0.11,0.67,-8.76,1.15,0.85,-1.95,-2.49,0.00
22.065,0.80,-1.06,-0.11,0.10,-8.77,1.90,0.85,-1.95,-2.49,0.00
22.143,0.80,-1.06,-0.11,0.10,-8.77,1.90,-0.55,0.07,-2.30,0.00
22.144,0.60,-0.88,-0.13,0.10,-8.77,1.90,-0.55,0.07,-2.30,0.00
22.145,0.60,-0.88,-0.13,-1.74,-7.53,0.96,-0.55,0.07,-2.30,0.00
22.201,0.60,-0.88,-0.13,-1.74,-7.53,0.96,-0.85,0.39,-1.93,0.00
22.202,0.60,-0.88,-0.13,-3.85,-7.23,0.74,-0.85,0.39,-1.93,0.00
22.202,0.41,-0.85,-0.13,-3.85,-7.23,0.74,-0.85,0.39,-1.93,0.00
22.261,0.31,-0.88,-0.37,-3.85,-7.23,0.74,-0.85,0.39,-1.93,0.00
22.262,0.31,-0.88,-0.37,-5.52,-7.71,0.86,-0.85,0.39,-1.93,0.00
22.263,0.31,-0.88,-0.37,-5.52,-7.71,0.86,-0.89,0.05,-1.09,0.00
22.319,0.31,-0.88,-0.37,-5.52,-7.71,0.86,-2.50,0.68,-0.14,0.00
22.32,0.26,-0.97,-0.39,-5.52,-7.71,0.86,-2.50,0.68,-0.14,0.00
22.32,0.26,-0.97,-0.39,-6.55,-8.41,-1.12,-2.50,0.68,-0.14,0.00
22.379,0.31,-1.02,-0.13,-6.55,-8.41,-1.12,-2.50,0.68,-0.14,0.00
22.38,0.31,-1.02,-0.13,-6.74,-8.69,-3.13,-2.50,0.68,-0.14,0.00
22.38,0.31,-1.02,-0.13,-6.74,-8.69,-3.13,-3.90,1.27,0.67,0.00
22.439,0.31,-1.02,-0.13,-7.12,-9.42,-1.13,-3.90,1.27,0.67,0.00
22.44,0.39,-1.22,0.06,-7.12,-9.42,-1.13,-3.90,1.27,0.67,0.00
22.498,0.39,-1.22,0.06,-7.12,-9.42,-1.13,-4.59,1.26,1.47,0.00
22.499,0.39,-1.22,0.06,-6.16,-8.71,-0.90,-4.59,1.26,1.47,0.00
22.558,0.39,-1.22,0.06,-6.16,-8.71,-0.90,-4.92,0.79,2.95,0.00
22.559,0.82,-1.63,0.32,-6.16,-8.71,-0.90,-4.92,0.79,2.95,0.00
22.56,0.82,-1.63,0.32,-4.01,-9.88,2.17,-4.92,0.79,2.95,0.00
22.588,0.82,-1.63,0.32,-4.01,-9.88,2.17,-4.66,0.44,3.43,0.00
22.589,1.48,-1.15,0.94,-4.01,-9.88,2.17,-4.66,0.44,3.43,0.00
22.599,1.48,-1.15,0.94,1.99,-10.75,6.38,-4.66,0.44,3.43,0.00
22.636,1.48,-1.15,0.94,7.03,-4.95,11.21,-4.66,0.44,3.43,0.00
22.695,1.48,-1.15,0.94,7.03,-4.95,11.21,-4.19,1.55,2.18,0.00
22.696,1.48,-1.15,0.94,3.27,-5.47,9.06,-4.19,1.55,2.18,0.00
22.696,1.08,-1.18,0.70,3.27,-5.47,9.06,-4.19,1.55,2.18,0.00
22.755,0.87,-1.06,0.77,3.27,-5.47,9.06,-4.19,1.55,2.18,0.00
22.756,0.87,-1.06,0.77,1.67,-4.09,10.26,-4.19,1.55,2.18,0.00
22.756,0.87,-1.06,0.77,1.67,-4.09,10.26,-3.71,1.98,2.00,0.00
22.785,0.86,-0.86,0.54,1.67,-4.09,10.26,-3.71,1.98,2.00,0.00
22.834,0.86,-0.86,0.54,1.67,-4.09,10.26,-2.79,1.84,1.85,0.00
22.835,0.86,-0.86,0.54,2.17,-1.50,7.96,-2.79,1.84,1.85,0.00
22.893,0.78,-0.85,0.41,2.17,-1.50,7.96,-2.79,1.84,1.85,0.00
22.893,0.78,-0.85,0.41,2.17,-1.50,7.96,-2.30,2.15,1.81,0.00
22.894,0.78,-0.85,0.41,1.52,-1.17,7.29,-2.30,2.15,1.81,0.00
22.953,0.78,-0.85,0.41,3.07,0.21,4.98,-2.30,2.15,1.81,0.00
22.954,0.92,-0.71,0.18,3.07,0.21,4.98,-2.30,2.15,1.81,0.00
22.954,0.92,-0.71,0.18,3.07,0.21,4.98,-1.97,1.96,1.82,0.00
23.012,0.92,-0.71,0.18,3.07,0.21,4.98,-2.08,1.91,1.58,0.00
23.012,0.83,-0.72,0.32,3.07,0.21,4.98,-2.08,1.91,1.58,0.00
23.013,0.83,-0.72,0.32,3.27,0.78,4.81,-2.08,1.91,1.58,0.00
23.072,0.83,-0.72,0.32,3.27,0.78,4.81,-1.26,1.76,1.73,0.00
23.072,1.03,-0.56,0.26,3.27,0.78,4.81,-1.26,1.76,1.73,0.00
23.073,1.03,-0.56,0.26,3.76,1.17,6.32,-1.26,1.76,1.73,0.00
23.13,1.03,-0.56,0.26,3.76,1.17,6.32,-0.56,1.32,1.11,0.00
23.131,1.08,-0.43,0.23,3.76,1.17,6.32,-0.56,1.32,1.11,0.00
23.131,1.08,-0.43,0.23,5.97,3.46,4.70,-0.56,1.32,1.11,0.00
23.189,1.08,-0.43,0.23,5.94,4.13,4.53,-0.56,1.32,1.11,0.00
23.19,1.08,-0.43,0.23,5.94,4.13,4.53,0.59,0.40,0.53,0.00
23.191,1.19,-0.54,0.18,5.94,4.13,4.53,0.59,0.40,0.53,0.00
23.249,1.19,-0.54,0.18,5.94,4.13,4.53,1.45,-0.65,-0.36,0.00
23.25,1.19,-0.54,0.18,7.08,3.13,3.31,1.45,-0.65,-0.36,0.00
23.251,1.29,-0.50,0.15,7.08,3.13,3.31,1.45,-0.65,-0.36,0.00
23.309,1.23,-0.73,-0.00,7.08,3.13,3.31,1.45,-0.65,-0.36,0.00
23.31,1.23,-0.73,-0.00,7.35,3.32,2.13,1.45,-0.65,-0.36,0.00
23.368,1.23,-0.73,-0.00,7.35,3.32,2.13,1.75,-0.26,-1.58,0.00
23.369,1.23,-0.73,-0.00,5.83,0.71,1.19,1.75,-0.26,-1.58,0.00
23.427,1.18,-0.85,-0.11,5.83,0.71,1.19,1.75,-0.26,-1.58,0.00
23.428,1.18,-0.85,-0.11,5.83,0.71,1.19,1.27,-0.29,-2.18,0.00
23.428,1.18,-0.85,-0.11,4.14,-1.52,-1.86,1.27,-0.29,-2.18,0.00
23.487,1.18,-0.85,-0.11,4.14,-1.52,-1.86,1.11,-0.53,-2.61,0.00
23.488,1.19,-0.92,-0.06,4.14,-1.52,-1.86,1.11,-0.53,-2.61,0.00
23.488,1.19,-0.92,-0.06,3.13,-3.88,-0.28,1.11,-0.53,-2.61,0.00
23.545,1.19,-0.92,-0.06,3.13,-3.88,-0.28,0.16,0.31,-2.91,0.00
23.546,1.04,-0.82,-0.13,3.13,-3.88,-0.28,0.16,0.31,-2.91,0.00
23.546,1.04,-0.82,-0.13,2.09,-4.55,-2.26,0.16,0.31,-2.91,0.00
23.59,1.04,-0.82,-0.13,2.09,-4.55,-2.26,-0.04,0.55,-2.78,0.00
23.59,0.68,-0.77,-0.03,2.09,-4.55,-2.26,-0.04,0.55,-2.78,0.00
23.606,0.68,-0.77,-0.03,-0.69,-5.72,-1.26,-0.04,0.55,-2.78,0.00
23.645,0.68,-0.77,-0.03,-0.69,-5.72,-1.26,0.40,-0.44,-2.05,0.00
23.645,0.40,-0.64,-0.04,-0.69,-5.72,-1.26,0.40,-0.44,-2.05,0.00
23.646,0.40,-0.64,-0.04,-4.01,-5.94,-0.83,0.40,-0.44,-2.05,0.00
23.704,0.40,-0.64,-0.04,-6.22,-5.30,-0.54,0.40,-0.44,-2.05,0.00
23.763,0.40,-0.64,-0.04,-6.22,-5.30,-0.54,0.21,-0.61,-0.81,0.00
23.764,0.36,-0.56,-0.02,-6.22,-5.30,-0.54,0.21,-0.61,-0.81,0.00
23.764,0.36,-0.56,-0.02,-6.19,-4.42,-0.13,0.21,-0.61,-0.81,0.00
23.824,0.36,-0.56,-0.02,-6.19,-4.42,-0.13,0.06,-0.31,0.38,0.00
23.824,0.36,-0.56,-0.02,-4.44,-3.95,-0.07,0.06,-0.31,0.38,0.00
23.825,0.55,-0.58,-0.04,-4.44,-3.95,-0.07,0.06,-0.31,0.38,0.00
23.884,0.55,-0.58,-0.04,-4.44,-3.95,-0.07,-0.03,-0.27,1.05,0.00
23.885,0.81,-0.70,-0.11,-4.44,-3.95,-0.07,-0.03,-0.27,1.05,0.00
23.885,0.81,-0.70,-0.11,-1.39,-3.97,-0.81,-0.03,-0.27,1.05,0.00
23.942,0.84,-0.63,0.01,-1.39,-3.97,-0.81,-0.03,-0.27,1.05,0.00
23.943,0.84,-0.63,0.01,-1.39,-3.97,-0.81,-0.35,0.04,1.77,0.00
23.944,0.84,-0.63,0.01,-1.20,-3.46,0.55,-0.35,0.04,1.77,0.00
24.0,0.84,-0.63,0.01,-1.20,-3.46,0.55,-0.62,0.30,1.84,0.00
24.001,0.98,-0.41,-0.20,-1.20,-3.46,0.55,-0.62,0.30,1.84,0.00
24.001,0.98,-0.41,-0.20,0.59,0.65,-1.37,-0.62,0.30,1.84,0.00
24.06,0.94,-0.75,0.15,0.59,0.65,-1.37,-0.62,0.30,1.84,0.00
24.061,0.94,-0.75,0.15,0.59,0.65,-1.37,-1.03,0.13,1.32,0.00
24.061,0.94,-0.75,0.15,1.41,-0.91,0.26,-1.03,0.13,1.32,0.00
24.139,0.84,-0.71,0.00,1.41,-0.91,0.26,-1.03,0.13,1.32,0.00
24.14,0.84,-0.71,0.00,1.41,-0.91,0.26,-0.49,0.14,1.35,0.00
24.14,0.84,-0.71,0.00,1.00,-1.54,2.10,-0.49,0.14,1.35,0.00
24.198,0.84,-0.71,0.00,1.00,-1.54,2.10,-0.99,0.76,1.44,0.00
24.199,0.72,-0.65,0.08,1.00,-1.54,2.10,-0.99,0.76,1.44,0.00
24.199,0.72,-0.65,0.08,0.43,-0.33,0.43,-0.99,0.76,1.44,0.00
24.259,0.75,-0.60,0.02,0.43,-0.33,0.43,-0.99,0.76,1.44,0.00
24.26,0.75,-0.60,0.02,0.43,-0.33,0.43,-0.73,0.60,1.59,0.00
24.26,0.75,-0.60,0.02,0.26,0.75,1.61,-0.73,0.60,1.59,0.00
24.317,0.75,-0.60,0.02,0.26,0.75,1.61,-0.74,0.32,1.65,0.00
24.317,0.84,-0.58,-0.01,0.26,0.75,1.61,-0.74,0.32,1.65,0.00
24.317,0.84,-0.58,-0.01,1.28,1.72,1.00,-0.74,0.32,1.65,0.00
24.377,0.84,-0.58,-0.01,1.28,1.72,1.00,-0.71,0.33,1.51,0.00
24.377,0.98,-0.62,0.11,1.28,1.72,1.00,-0.71,0.33,1.51,0.00
24.378,0.98,-0.62,0.11,2.74,2.41,0.90,-0.71,0.33,1.51,0.00
24.435,0.98,-0.62,0.11,4.52,2.35,2.10,-0.71,0.33,1.51,0.00
24.495,0.98,-0.62,0.11,4.52,2.35,2.10,-0.04,0.01,1.23,0.00
24.496,0.98,-0.62,0.11,6.41,3.09,2.04,-0.04,0.01,1.23,0.00
24.496,1.17,-0.55,0.09,6.41,3.09,2.04,-0.04,0.01,1.23,0.00
24.554,1.17,-0.55,0.09,7.92,3.17,1.38,-0.04,0.01,1.23,0.00
24.555,1.17,-0.55,0.09,7.92,3.17,1.38,0.50,-0.35,0.44,0.00
24.556,1.29,-0.63,0.09,7.92,3.17,1.38,0.50,-0.35,0.44,0.00
24.599,1.33,-0.50,0.02,7.92,3.17,1.38,0.50,-0.35,0.44,0.00
24.633,1.33,-0.50,0.02,7.91,1.96,1.16,0.50,-0.35,0.44,0.00
24.634,1.33,-0.50,0.02,7.91,1.96,1.16,0.93,-0.36,-0.24,0.00
24.692,1.33,-0.50,0.02,7.91,1.96,1.16,0.95,-0.55,-1.65,0.00
24.693,1.19,-0.54,0.05,7.91,1.96,1.16,0.95,-0.55,-1.65,0.00
24.693,1.19,-0.54,0.05,6.99,4.00,-0.06,0.95,-0.55,-1.65,0.00
24.752,1.02,-0.98,0.04,6.99,4.00,-0.06,0.95,-0.55,-1.65,0.00
24.753,1.02,-0.98,0.04,3.61,0.16,0.69,0.95,-0.55,-1.65,0.00
24.753,1.02,-0.98,0.04,3.61,0.16,0.69,1.30,-1.26,-2.27,0.00
24.782,1.12,-1.02,0.01,3.61,0.16,0.69,1.30,-1.26,-2.27,0.00
24.782,1.12,-1.02,0.01,2.26,-3.91,0.70,1.30,-1.26,-2.27,0.00
24.83,1.12,-1.02,0.01,2.26,-3.91,0.70,1.18,-2.04,-2.25,0.00
24.831,1.12,-1.02,0.01,2.31,-5.09,0.97,1.18,-2.04,-2.25,0.00
24.891,1.12,-1.02,0.01,2.31,-5.09,0.97,0.14,-1.03,-2.47,0.00
24.891,0.98,-0.89,0.10,2.31,-5.09,0.97,0.14,-1.03,-2.47,0.00
24.892,0.98,-0.89,0.10,0.37,-5.29,1.90,0.14,-1.03,-2.47,0.00
24.949,0.98,-0.89,0.10,-2.43,-5.80,1.86,0.14,-1.03,-2.47,0.00
24.95,0.98,-0.89,0.10,-2.43,-5.80,1.86,-0.43,0.23,-2.68,0.00
24.951,0.70,-0.81,0.10,-2.43,-5.80,1.86,-0.43,0.23,-2.68,0.00
25.008,0.70,-0.81,0.10,-4.35,-6.56,1.28,-0.43,0.23,-2.68,0.00
25.009,0.53,-0.78,0.03,-4.35,-6.56,1.28,-0.43,0.23,-2.68,0.00
25.009,0.53,-0.78,0.03,-4.35,-6.56,1.28,-0.28,0.23,-2.34,0.00
25.068,0.53,-0.78,0.03,-4.35,-6.56,1.28,-0.31,-0.05,-1.69,0.00
25.069,0.38,-0.83,0.08,-4.35,-6.56,1.28,-0.31,-0.05,-1.69,0.00
25.069,0.38,-0.83,0.08,-5.49,-7.61,1.13,-0.31,-0.05,-1.69,0.00
25.147,0.38,-0.83,0.08,-5.49,-7.61,1.13,-0.35,0.29,-0.43,0.00
25.148,0.38,-0.83,0.08,-6.70,-7.36,1.35,-0.35,0.29,-0.43,0.00
25.148,0.31,-0.81,0.01,-6.70,-7.36,1.35,-0.35,0.29,-0.43,0.00
25.206,0.31,-0.81,0.01,-6.70,-7.36,1.35,-0.76,0.68,1.25,0.00
25.206,0.31,-0.81,0.01,-6.51,-6.71,-0.31,-0.76,0.68,1.25,0.00
25.207,0.35,-0.83,0.00,-6.51,-6.71,-0.31,-0.76,0.68,1.25,0.00
25.266,0.86,-0.66,-0.01,-6.51,-6.71,-0.31,-0.76,0.68,1.25,0.00
25.267,0.86,-0.66,-0.01,-4.58,-4.39,0.38,-0.76,0.68,1.25,0.00
25.267,0.86,-0.66,-0.01,-4.58,-4.39,0.38,-0.45,0.45,2.43,0.00
25.325,0.86,-0.66,-0.01,0.51,-2.13,-0.24,-0.45,0.45,2.43,0.00
25.326,0.86,-0.66,-0.01,0.51,-2.13,-0.24,0.02,-0.33,2.33,0.00
25.326,1.08,-0.69,-0.10,0.51,-2.13,-0.24,0.02,-0.33,2.33,0.00
25.385,1.08,-0.69,-0.10,0.51,-2.13,-0.24,-0.05,-0.50,1.77,0.00
25.386,1.04,-0.61,-0.10,0.51,-2.13,-0.24,-0.05,-0.50,1.77,0.00
25.386,1.04,-0.61,-0.10,2.60,-1.42,-0.56,-0.05,-0.50,1.77,0.00
25.444,1.04,-0.61,-0.10,2.60,-1.42,-0.56,-0.85,0.63,1.53,0.00
25.445,0.82,-0.66,0.03,2.60,-1.42,-0.56,-0.85,0.63,1.53,0.00
25.445,0.82,-0.66,0.03,2.69,0.07,-0.50,-0.85,0.63,1.53,0.00
25.503,0.82,-0.66,0.03,1.01,0.29,0.31,-0.85,0.63,1.53,0.00
25.562,0.82,-0.66,0.03,1.01,0.29,0.31,-0.53,0.55,1.73,0.00
25.563,0.87,-0.67,0.05,1.01,0.29,0.31,-0.53,0.55,1.73,0.00
25.563,0.87,-0.67,0.05,1.94,0.78,1.45,-0.53,0.55,1.73,0.00
25.592,0.87,-0.67,0.05,1.94,0.78,1.45,-0.30,0.20,1.86,0.00
25.61,1.02,-0.51,-0.05,1.94,0.78,1.45,-0.30,0.20,1.86,0.00
25.642,1.02,-0.51,-0.05,3.57,2.15,0.04,-0.30,0.20,1.86,0.00
25.643,1.12,-0.53,0.06,3.57,2.15,0.04,-0.30,0.20,1.86,0.00
25.7,1.12,-0.53,0.06,5.74,3.77,0.54,-0.30,0.20,1.86,0.00
25.701,1.12,-0.53,0.06,5.74,3.77,0.54,-0.41,0.36,1.31,0.00
25.76,1.12,-0.53,0.06,6.17,2.90,1.01,-0.41,0.36,1.31,0.00
25.761,1.24,-0.50,-0.02,6.17,2.90,1.01,-0.41,0.36,1.31,0.00
25.761,1.24,-0.50,-0.02,6.17,2.90,1.01,0.19,-0.20,0.94,0.00
25.781,1.24,-0.50,-0.02,6.17,2.90,1.01,0.24,-0.27,0.03,0.00
25.782,1.30,-0.56,0.13,6.17,2.90,1.01,0.24,-0.27,0.03,0.00
25.783,1.30,-0.56,0.13,7.78,3.78,0.26,0.24,-0.27,0.03,0.00
25.839,1.30,-0.46,0.01,7.78,3.78,0.26,0.24,-0.27,0.03,0.00
25.84,1.30,-0.46,0.01,7.02,2.45,1.62,0.24,-0.27,0.03,0.00
25.899,1.30,-0.46,0.01,7.02,2.45,1.62,0.78,-0.50,-0.67,0.00
25.9,1.30,-0.46,0.01,6.42,3.07,0.14,0.78,-0.50,-0.67,0.00
25.959,1.11,-0.77,0.13,6.42,3.07,0.14,0.78,-0.50,-0.67,0.00
25.96,1.11,-0.77,0.13,3.62,-0.70,1.59,0.78,-0.50,-0.67,0.00
25.961,1.11,-0.77,0.13,3.62,-0.70,1.59,0.96,-1.32,-1.84,0.00
26.018,1.11,-0.77,0.13,3.62,-0.70,1.59,1.15,-1.83,-2.04,0.00
26.019,1.12,-0.96,0.08,3.62,-0.70,1.59,1.15,-1.83,-2.04,0.00
26.019,1.12,-0.96,0.08,2.75,-3.54,1.62,1.15,-1.83,-2.04,0.00
26.076,1.05,-0.92,0.17,2.75,-3.54,1.62,1.15,-1.83,-2.04,0.00
26.077,1.05,-0.92,0.17,2.75,-3.54,1.62,0.53,-1.42,-2.32,0.00
26.077,1.05,-0.92,0.17,1.95,-4.64,2.40,0.53,-1.42,-2.32,0.00
26.135,1.05,-0.92,0.17,1.95,-4.64,2.40,0.23,-0.47,-2.64,0.00
26.136,0.90,-0.80,0.08,1.95,-4.64,2.40,0.23,-0.47,-2.64,0.00
26.136,0.90,-0.80,0.08,-0.08,-4.96,2.93,0.23,-0.47,-2.64,0.00
26.195,0.90,-0.80,0.08,-0.08,-4.96,2.93,-0.41,0.11,-2.77,0.00
26.195,0.59,-0.84,0.00,-0.08,-4.96,2.93,-0.41,0.11,-2.77,0.00
26.195,0.59,-0.84,0.00,-2.26,-6.09,0.46,-0.41,0.11,-2.77,0.00
26.254,0.59,-0.84,0.00,-4.97,-7.43,2.05,-0.41,0.11,-2.77,0.00
26.254,0.45,-0.77,0.10,-4.97,-7.43,2.05,-0.41,0.11,-2.77,0.00
26.255,0.45,-0.77,0.10,-4.97,-7.43,2.05,-0.27,-0.07,-1.92,0.00
26.313,0.45,-0.77,0.10,-5.54,-6.48,1.73,-0.27,-0.07,-1.92,0.00
26.314,0.40,-0.66,0.06,-5.54,-6.48,1.73,-0.27,-0.07,-1.92,0.00
26.314,0.40,-0.66,0.06,-5.54,-6.48,1.73,-0.19,0.12,-0.96,0.00
26.372,0.39,-0.73,-0.05,-5.54,-6.48,1.73,-0.19,0.12,-0.96,0.00
26.373,0.39,-0.73,-0.05,-5.87,-5.93,1.31,-0.19,0.12,-0.96,0.00
26.432,0.39,-0.73,-0.05,-5.68,-5.79,0.02,-0.19,0.12,-0.96,0.00
26.433,0.39,-0.73,-0.05,-5.68,-5.79,0.02,-0.17,0.44,0.13,0.00
26.491,0.39,-0.73,-0.05,-3.82,-4.37,-0.38,-0.17,0.44,0.13,0.00
26.492,0.39,-0.73,-0.05,-3.82,-4.37,-0.38,-0.14,0.25,1.34,0.00
26.492,0.55,-0.71,-0.10,-3.82,-4.37,-0.38,-0.14,0.25,1.34,0.00
26.551,0.79,-0.47,-0.08,-3.82,-4.37,-0.38,-0.14,0.25,1.34,0.00
26.552,0.79,-0.47,-0.08,-3.82,-4.37,-0.38,-0.03,-0.01,2.27,0.00
26.552,0.79,-0.47,-0.08,-1.73,-0.53,-0.05,-0.03,-0.01,2.27,0.00
26.589,0.79,-0.47,-0.08,-1.73,-0.53,-0.05,0.22,-0.26,2.26,0.00
26.601,0.91,-0.89,-0.12,-1.73,-0.53,-0.05,0.22,-0.26,2.26,0.00
26.65,0.91,-0.89,-0.12,-1.73,-0.53,-0.05,0.90,-1.20,2.90,0.00
26.651,1.31,-0.81,-0.11,-1.73,-0.53,-0.05,0.90,-1.20,2.90,0.00
26.651,1.31,-0.81,-0.11,0.93,-2.31,-0.61,0.90,-1.20,2.90,0.00
26.708,1.35,-0.52,-0.08,0.93,-2.31,-0.61,0.90,-1.20,2.90,0.00
26.709,1.35,-0.52,-0.08,4.05,-2.38,0.36,0.90,-1.20,2.90,0.00
26.769,1.35,-0.52,-0.08,7.70,1.16,-0.58,0.90,-1.20,2.90,0.00
26.769,1.35,-0.52,-0.08,7.70,1.16,-0.58,0.96,-1.17,2.08,0.00
26.827,1.35,-0.52,-0.08,7.70,1.16,-0.58,1.58,-1.17,1.16,0.00
26.828,1.05,-0.44,-0.20,7.70,1.16,-0.58,1.58,-1.17,1.16,0.00
26.828,1.05,-0.44,-0.20,6.13,3.17,0.54,1.58,-1.17,1.16,0.00
26.887,1.05,-0.44,-0.20,6.13,3.17,0.54,1.92,-2.03,0.74,0.00
26.888,0.86,-0.42,-0.17,6.13,3.17,0.54,1.92,-2.03,0.74,0.00
26.888,0.86,-0.42,-0.17,3.93,3.90,-2.19,1.92,-2.03,0.74,0.00
26.946,0.86,-0.42,-0.17,3.93,3.90,-2.19,2.97,-3.40,0.50,0.00
26.947,0.94,-0.63,-0.24,3.93,3.90,-2.19,2.97,-3.40,0.50,0.00
26.947,0.94,-0.63,-0.24,2.96,3.80,-0.83,2.97,-3.40,0.50,0.00
27.005,0.94,-0.63,-0.24,2.96,3.80,-0.83,2.20,-3.42,0.06,0.00
27.005,0.98,-0.75,-0.20,2.96,3.80,-0.83,2.20,-3.42,0.06,0.00
27.006,0.98,-0.75,-0.20,4.01,1.86,-2.44,2.20,-3.42,0.06,0.00
27.065,0.98,-0.75,-0.20,4.26,0.81,-1.64,2.20,-3.42,0.06,0.00
27.066,0.74,-0.71,0.05,4.26,0.81,-1.64,2.20,-3.42,0.06,0.00
27.066,0.74,-0.71,0.05,4.26,0.81,-1.64,1.32,-2.85,-0.37,0.00
27.099,0.74,-0.71,0.05,1.97,0.88,1.13,1.32,-2.85,-0.37,0.00
27.145,0.74,-0.71,0.05,1.97,0.88,1.13,0.87,-2.78,-0.67,0.00
27.146,0.59,-0.74,0.30,1.97,0.88,1.13,0.87,-2.78,-0.67,0.00
27.146,0.59,-0.74,0.30,0.35,1.00,3.64,0.87,-2.78,-0.67,0.00
27.203,0.59,-0.74,0.30,0.35,1.00,3.64,1.01,-2.79,-0.65,0.00
27.203,0.59,-0.74,0.30,-1.60,-1.17,5.76,1.01,-2.79,-0.65,0.00
27.204,0.36,-0.96,0.43,-1.60,-1.17,5.76,1.01,-2.79,-0.65,0.00
27.264,0.36,-0.96,0.43,-1.60,-1.17,5.76,1.00,-2.19,0.05,0.00
27.265,0.44,-0.87,0.42,-1.60,-1.17,5.76,1.00,-2.19,0.05,0.00
27.265,0.44,-0.87,0.42,-1.52,-1.25,5.84,1.00,-2.19,0.05,0.00
27.322,0.44,-0.87,0.42,-1.52,-1.25,5.84,1.18,-1.76,0.31,0.00
27.322,0.44,-0.87,0.42,-0.39,0.17,5.89,1.18,-1.76,0.31,0.00
27.322,0.52,-0.81,0.44,-0.39,0.17,5.89,1.18,-1.76,0.31,0.00
27.382,0.58,-1.00,0.37,-0.39,0.17,5.89,1.18,-1.76,0.31,0.00
27.383,0.58,-1.00,0.37,0.61,0.16,5.34,1.18,-1.76,0.31,0.00
27.383,0.58,-1.00,0.37,0.61,0.16,5.34,1.68,-1.84,0.27,0.00
27.44,0.58,-1.00,0.37,1.31,-1.38,4.10,1.68,-1.84,0.27,0.00
27.441,0.72,-0.88,0.19,1.31,-1.38,4.10,1.68,-1.84,0.27,0.00
27.505,0.72,-0.88,0.19,1.31,-1.38,4.10,2.15,-1.90,0.69,0.00
27.505,0.72,-0.88,0.19,3.16,0.47,1.69,2.15,-1.90,0.69,0.00
27.559,0.72,-0.88,0.19,3.16,0.47,1.69,2.03,-2.57,0.09,0.00
27.56,1.00,-0.60,0.03,3.16,0.47,1.69,2.03,-2.57,0.09,0.00
27.561,1.00,-0.60,0.03,5.13,2.75,0.17,2.03,-2.57,0.09,0.00
27.589,1.00,-0.60,0.03,5.13,2.75,0.17,1.25,-2.16,-0.96,0.00
27.6,0.75,-0.73,0.16,5.13,2.75,0.17,1.25,-2.16,-0.96,0.00
27.639,0.75,-0.82,0.24,5.13,2.75,0.17,1.25,-2.16,-0.96,0.00
27.639,0.75,-0.82,0.24,2.30,1.21,1.55,1.25,-2.16,-0.96,0.00
27.7,0.75,-0.82,0.24,2.30,1.21,1.55,0.69,-1.53,-1.07,0.00
27.701,0.75,-0.82,0.24,1.25,-0.03,2.07,0.69,-1.53,-1.07,0.00
27.757,0.75,-0.82,0.24,1.25,-0.03,2.07,0.65,-1.10,-1.23,0.00
27.758,0.80,-0.86,0.22,1.25,-0.03,2.07,0.65,-1.10,-1.23,0.00
27.758,0.80,-0.86,0.22,1.21,-0.89,2.78,0.65,-1.10,-1.23,0.00
27.781,0.80,-0.86,0.22,1.21,-0.89,2.78,0.47,-0.85,-1.40,0.00
27.782,0.92,-0.86,0.08,1.21,-0.89,2.78,0.47,-0.85,-1.40,0.00
27.835,0.92,-0.86,0.08,1.14,-1.80,1.48,0.47,-0.85,-1.40,0.00
27.896,0.82,-0.94,0.07,1.14,-1.80,1.48,0.47,-0.85,-1.40,0.00
27.896,0.82,-0.94,0.07,1.14,-1.80,1.48,-0.16,-0.20,-1.90,0.00
27.896,0.82,-0.94,0.07,1.25,-2.64,0.98,-0.16,-0.20,-1.90,0.00
27.955,0.82,-0.94,0.07,1.25,-2.64,0.98,-0.38,0.25,-1.86,0.00
27.955,0.60,-0.94,0.07,1.25,-2.64,0.98,-0.38,0.25,-1.86,0.00
27.956,0.60,-0.94,0.07,-1.12,-4.07,0.99,-0.38,0.25,-1.86,0.00
28.013,0.60,-0.94,0.07,-3.30,-4.74,0.93,-0.38,0.25,-1.86,0.00
28.014,0.41,-0.94,-0.00,-3.30,-4.74,0.93,-0.38,0.25,-1.86,0.00
28.014,0.41,-0.94,-0.00,-3.30,-4.74,0.93,-0.14,0.04,-1.31,0.00
28.074,0.41,-0.94,-0.00,-3.30,-4.74,0.93,-0.00,-0.23,-0.51,0.00
28.074,0.41,-0.94,-0.00,-5.04,-4.87,0.32,-0.00,-0.23,-0.51,0.00
28.075,0.36,-0.90,-0.02,-5.04,-4.87,0.32,-0.00,-0.23,-0.51,0.00
28.132,0.36,-0.90,-0.02,-5.25,-4.39,0.36,-0.00,-0.23,-0.51,0.00
28.133,0.36,-0.90,-0.02,-5.25,-4.39,0.36,0.11,-0.21,0.21,0.00
28.133,0.42,-0.77,-0.16,-5.25,-4.39,0.36,0.11,-0.21,0.21,0.00
28.192,0.45,-0.74,-0.13,-5.25,-4.39,0.36,0.11,-0.21,0.21,0.00
28.193,0.45,-0.74,-0.13,-4.48,-2.89,-0.88,0.11,-0.21,0.21,0.00
28.193,0.45,-0.74,-0.13,-4.48,-2.89,-0.88,0.08,-0.26,0.62,0.00
28.251,0.45,-0.74,-0.13,-3.78,-1.99,-0.59,0.08,-0.26,0.62,0.00
28.252,0.57,-0.75,-0.15,-3.78,-1.99,-0.59,0.08,-0.26,0.62,0.00
28.252,0.57,-0.75,-0.15,-3.78,-1.99,-0.59,0.33,-0.35,1.22,0.00
28.31,0.77,-0.73,-0.17,-3.78,-1.99,-0.59,0.33,-0.35,1.22,0.00
28.311,0.77,-0.73,-0.17,-3.78,-1.99,-0.59,0.26,-0.24,1.66,0.00
28.311,0.77,-0.73,-0.17,-2.60,-1.28,-0.52,0.26,-0.24,1.66,0.00
28.37,0.77,-0.73,-0.17,-0.36,-0.66,-0.96,0.26,-0.24,1.66,0.00
28.429,0.89,-0.69,-0.21,-0.36,-0.66,-0.96,0.26,-0.24,1.66,0.00
28.429,0.89,-0.69,-0.21,-0.36,-0.66,-0.96,0.09,-0.06,1.62,0.00
28.43,0.89,-0.69,-0.21,2.07,0.57,-0.96,0.09,-0.06,1.62,0.00
28.489,0.89,-0.69,-0.21,2.07,0.57,-0.96,-0.29,0.18,1.49,0.00
28.489,0.88,-0.74,-0.09,2.07,0.57,-0.96,-0.29,0.18,1.49,0.00
28.49,0.88,-0.74,-0.09,2.79,0.84,-0.98,-0.29,0.18,1.49,0.00
28.548,0.88,-0.74,-0.09,3.65,1.07,0.35,-0.29,0.18,1.49,0.00
28.549,1.03,-0.73,0.00,3.65,1.07,0.35,-0.29,0.18,1.49,0.00
28.549,1.03,-0.73,0.00,3.65,1.07,0.35,-0.25,0.23,1.26,0.00
28.589,1.03,-0.73,0.00,3.65,1.07,0.35,0.07,0.29,0.91,0.00
28.59,1.11,-0.65,0.02,3.65,1.07,0.35,0.07,0.29,0.91,0.00
28.605,1.11,-0.65,0.02,5.40,1.26,0.89,0.07,0.29,0.91,0.00
28.646,1.20,-0.40,0.06,5.40,1.26,0.89,0.07,0.29,0.91,0.00
28.647,1.20,-0.40,0.06,5.40,1.26,0.89,0.31,-0.07,0.15,0.00
28.647,1.20,-0.40,0.06,6.12,2.08,0.84,0.31,-0.07,0.15,0.00
28.707,1.06,-0.72,0.13,6.12,2.08,0.84,0.31,-0.07,0.15,0.00
28.707,1.06,-0.72,0.13,6.55,4.57,0.88,0.31,-0.07,0.15,0.00
28.765,1.06,-0.72,0.13,6.55,4.57,0.88,0.65,-0.32,-1.13,0.00
28.766,1.06,-0.72,0.13,4.61,1.46,1.54,0.65,-0.32,-1.13,0.00
28.824,1.06,-0.72,0.13,4.61,1.46,1.54,0.89,-0.74,-1.63,0.00
28.825,1.06,-0.72,0.13,3.55,-0.65,0.64,0.89,-0.74,-1.63,0.00
28.825,1.06,-0.78,0.01,3.55,-0.65,0.64,0.89,-0.74,-1.63,0.00
28.884,1.06,-0.78,0.01,3.55,-0.65,0.64,0.39,-0.37,-2.21,0.00
28.885,1.01,-0.84,0.05,3.55,-0.65,0.64,0.39,-0.37,-2.21,0.00
28.886,1.01,-0.84,0.05,2.37,-1.85,0.44,0.39,-0.37,-2.21,0.00
28.944,1.01,-0.84,0.05,0.35,-3.58,-0.27,0.39,-0.37,-2.21,0.00
28.945,0.80,-0.86,-0.09,0.35,-3.58,-0.27,0.39,-0.37,-2.21,0.00
28.945,0.80,-0.86,-0.09,0.35,-3.58,-0.27,0.09,-0.07,-2.51,0.00
29.002,0.80,-0.86,-0.09,0.35,-3.58,-0.27,-0.18,-0.03,-2.40,0.00
29.003,0.58,-0.85,-0.06,0.35,-3.58,-0.27,-0.18,-0.03,-2.40,0.00
29.003,0.58,-0.85,-0.06,-1.93,-4.63,-0.38,-0.18,-0.03,-2.40,0.00
29.063,0.45,-0.79,-0.06,-1.93,-4.63,-0.38,-0.18,-0.03,-2.40,0.00
29.065,0.45,-0.79,-0.06,-1.93,-4.63,-0.38,-0.25,-0.19,-1.71,0.00
29.065,0.45,-0.79,-0.06,-4.34,-5.37,-0.29,-0.25,-0.19,-1.71,0.00
29.141,0.39,-0.78,-0.06,-4.34,-5.37,-0.29,-0.25,-0.19,-1.71,0.00
29.142,0.39,-0.78,-0.06,-4.34,-5.37,-0.29,-0.34,-0.24,-0.83,0.00
29.142,0.39,-0.78,-0.06,-5.22,-5.27,-0.05,-0.34,-0.24,-0.83,0.00
29.201,0.39,-0.78,-0.06,-5.22,-5.27,-0.05,-0.31,-0.19,0.29,0.00
29.201,0.39,-0.78,-0.06,-5.58,-5.11,0.10,-0.31,-0.19,0.29,0.00
29.202,0.40,-0.84,-0.03,-5.58,-5.11,0.10,-0.31,-0.19,0.29,0.00
29.26,0.57,-0.96,-0.09,-5.58,-5.11,0.10,-0.31,-0.19,0.29,0.00
29.261,0.57,-0.96,-0.09,-5.48,-4.95,0.77,-0.31,-0.19,0.29,0.00
29.261,0.57,-0.96,-0.09,-5.48,-4.95,0.77,-0.11,-0.41,1.40,0.00
29.318,0.57,-0.96,-0.09,-5.48,-4.95,0.77,0.17,-0.57,2.47,0.00
29.319,0.84,-0.75,-0.05,-5.48,-4.95,0.77,0.17,-0.57,2.47,0.00
29.319,0.84,-0.75,-0.05,-3.23,-4.84,0.15,0.17,-0.57,2.47,0.00
29.379,1.26,-0.45,-0.24,-3.23,-4.84,0.15,0.17,-0.57,2.47,0.00
29.38,1.26,-0.45,-0.24,-3.23,-4.84,0.15,0.08,-0.25,1.93,0.00
29.381,1.26,-0.45,-0.24,-1.09,-3.04,0.97,0.08,-0.25,1.93,0.00
29.438,1.26,-0.45,-0.24,3.94,1.28,-0.17,0.08,-0.25,1.93,0.00
29.497,1.26,-0.45,-0.24,3.94,1.28,-0.17,-0.90,0.53,0.48,0.00
29.498,0.87,-0.71,0.06,3.94,1.28,-0.17,-0.90,0.53,0.48,0.00
29.499,0.87,-0.71,0.06,4.16,0.95,-0.14,-0.90,0.53,0.48,0.00
29.556,0.87,-0.71,0.06,4.16,0.95,-0.14,-0.74,1.11,0.66,0.00
29.556,0.76,-0.63,-0.00,4.16,0.95,-0.14,-0.74,1.11,0.66,0.00
29.557,0.76,-0.63,-0.00,0.23,-0.44,2.22,-0.74,1.11,0.66,0.00
29.59,0.68,-0.61,-0.05,0.23,-0.44,2.22,-0.74,1.11,0.66,0.00
29.599,0.68,-0.61,-0.05,0.49,0.78,0.55,-0.74,1.11,0.66,0.00
29.634,0.68,-0.61,-0.05,0.49,0.78,0.55,-1.04,1.63,0.72,0.00
29.635,0.68,-0.61,-0.05,-0.14,1.16,0.37,-1.04,1.63,0.72,0.00
29.694,0.68,-0.61,-0.05,-0.14,1.16,0.37,-0.71,1.03,0.98,0.00
29.695,0.71,-0.53,0.04,-0.14,1.16,0.37,-0.71,1.03,0.98,0.00
29.696,0.71,-0.53,0.04,0.61,2.21,1.08,-0.71,1.03,0.98,0.00
29.753,0.71,-0.53,0.04,0.61,2.21,1.08,0.07,0.14,0.91,0.00
29.754,0.82,-0.58,0.06,0.61,2.21,1.08,0.07,0.14,0.91,0.00
29.755,0.82,-0.58,0.06,2.08,2.24,1.02,0.07,0.14,0.91,0.00
29.782,0.98,-0.67,-0.06,2.08,2.24,1.02,0.07,0.14,0.91,0.00
29.832,0.98,-0.67,-0.06,3.52,1.36,0.33,0.07,0.14,0.91,0.00
29.833,0.98,-0.67,-0.06,3.52,1.36,0.33,1.03,-0.69,0.95,0.00
29.892,1.18,-0.65,-0.07,3.52,1.36,0.33,1.03,-0.69,0.95,0.00
29.893,1.18,-0.65,-0.07,5.76,1.89,-1.30,1.03,-0.69,0.95,0.00
29.894,1.18,-0.65,-0.07,5.76,1.89,-1.30,0.69,-0.59,0.62,0.00
29.951,1.18,-0.65,-0.07,5.86,1.99,0.16,0.69,-0.59,0.62,0.00
29.952,1.16,-0.49,-0.03,5.86,1.99,0.16,0.69,-0.59,0.62,0.00
29.953,1.16,-0.49,-0.03,5.86,1.99,0.16,0.44,-0.07,0.09,0.00
30.011,1.16,-0.49,-0.03,5.05,3.53,-0.19,0.44,-0.07,0.09,0.00
30.011,1.11,-0.56,0.08,5.05,3.53,-0.19,0.44,-0.07,0.09,0.00
30.012,1.11,-0.56,0.08,5.05,3.53,-0.19,0.75,-0.95,-0.95,0.00
30.069,1.11,-0.85,-0.09,5.05,3.53,-0.19,0.75,-0.95,-0.95,0.00
30.07,1.11,-0.85,-0.09,3.36,0.08,0.79,0.75,-0.95,-0.95,0.00
30.07,1.11,-0.85,-0.09,3.36,0.08,0.79,1.16,-1.69,-1.46,0.00
30.149,1.11,-0.85,-0.09,3.36,0.08,0.79,0.21,-1.34,-1.88,0.00
30.149,1.22,-0.84,0.01,3.36,0.08,0.79,0.21,-1.34,-1.88,0.00
30.149,1.22,-0.84,0.01,3.64,-2.22,-0.34,0.21,-1.34,-1.88,0.00
30.212,1.22,-0.84,0.01,3.64,-2.22,-0.34,-0.62,0.16,-2.55,0.00
30.212,0.93,-0.86,0.14,3.64,-2.22,-0.34,-0.62,0.16,-2.55,0.00
30.213,0.93,-0.86,0.14,3.14,-3.30,1.18,-0.62,0.16,-2.55,0.00
30.268,0.93,-0.86,0.14,3.14,-3.30,1.18,-0.35,0.57,-2.72,0.00
30.269,0.93,-0.86,0.14,-0.30,-4.88,1.95,-0.35,0.57,-2.72,0.00
30.269,0.62,-0.83,0.11,-0.30,-4.88,1.95,-0.35,0.57,-2.72,0.00
30.326,0.62,-0.83,0.11,-0.30,-4.88,1.95,0.24,-0.09,-2.30,0.00
30.327,0.42,-0.83,0.04,-0.30,-4.88,1.95,0.24,-0.09,-2.30,0.00
30.327,0.42,-0.83,0.04,-3.45,-5.93,1.52,0.24,-0.09,-2.30,0.00
30.386,0.42,-0.83,0.04,-3.45,-5.93,1.52,0.34,-0.67,-1.14,0.00
30.387,0.27,-0.81,-0.05,-3.45,-5.93,1.52,0.34,-0.67,-1.14,0.00
30.388,0.27,-0.81,-0.05,-5.40,-6.53,1.47,0.34,-0.67,-1.14,0.00
30.445,0.27,-0.81,-0.05,-5.40,-6.53,1.47,-0.11,-0.25,0.22,0.00
30.446,0.42,-0.92,-0.08,-5.40,-6.53,1.47,-0.11,-0.25,0.22,0.00
30.446,0.42,-0.92,-0.08,-6.84,-7.16,0.55,-0.11,-0.25,0.22,0.00
30.506,0.55,-0.91,-0.04,-6.84,-7.16,0.55,-0.11,-0.25,0.22,0.00
30.506,0.55,-0.91,-0.04,-6.00,-5.84,0.47,-0.11,-0.25,0.22,0.00
30.564,0.55,-0.91,-0.04,-6.00,-5.84,0.47,-0.49,0.29,1.86,0.00
30.565,0.55,-0.91,-0.04,-5.01,-7.28,0.23,-0.49,0.29,1.86,0.00
30.589,0.55,-0.91,-0.04,-5.01,-7.28,0.23,-0.45,0.36,2.41,0.00
30.589,1.05,-0.42,-0.14,-5.01,-7.28,0.23,-0.45,0.36,2.41,0.00
30.6,1.05,-0.42,-0.14,-1.51,-2.59,0.16,-0.45,0.36,2.41,0.00
30.643,1.05,-0.42,-0.14,-1.51,-2.59,0.16,-0.95,0.58,1.11,0.00
30.644,0.99,-0.60,-0.09,-1.51,-2.59,0.16,-0.95,0.58,1.11,0.00
30.644,0.99,-0.60,-0.09,2.46,1.01,-0.78,-0.95,0.58,1.11,0.00
30.704,0.99,-0.60,-0.09,1.22,-1.19,0.30,-0.95,0.58,1.11,0.00
30.762,0.79,-0.87,-0.00,1.22,-1.19,0.30,-0.95,0.58,1.11,0.00
30.763,0.79,-0.87,-0.00,-0.15,-2.85,0.79,-0.95,0.58,1.11,0.00
30.763,0.79,-0.87,-0.00,-0.15,-2.85,0.79,-0.72,0.22,0.71,0.00
30.781,0.79,-0.87,-0.00,-0.15,-2.85,0.79,-0.96,0.85,1.33,0.00
30.782,0.65,-0.79,0.04,-0.15,-2.85,0.79,-0.96,0.85,1.33,0.00
30.841,0.87,-0.50,0.15,-0.15,-2.85,0.79,-0.96,0.85,1.33,0.00
30.842,0.87,-0.50,0.15,-1.15,-1.61,0.75,-0.96,0.85,1.33,0.00
30.9,0.87,-0.50,0.15,-1.15,-1.61,0.75,-1.09,1.99,1.64,0.00
30.9,0.87,-0.50,0.15,1.28,1.71,1.25,-1.09,1.99,1.64,0.00
30.959,0.87,-0.50,0.15,3.36,3.30,-0.76,-1.09,1.99,1.64,0.00
30.959,0.87,-0.50,0.15,3.36,3.30,-0.76,-1.75,3.62,1.10,0.00
30.959,1.06,-0.40,0.06,3.36,3.30,-0.76,-1.75,3.62,1.10,0.00
31.019,1.06,-0.40,0.06,4.87,3.21,1.86,-1.75,3.62,1.10,0.00
31.02,1.06,-0.40,0.06,4.87,3.21,1.86,-1.62,3.50,0.26,0.00
31.02,1.20,-0.41,0.48,4.87,3.21,1.86,-1.62,3.50,0.26,0.00
31.078,1.20,-0.41,0.48,4.87,3.21,1.86,-0.65,2.60,-0.48,0.00
31.078,1.25,-0.24,0.65,4.87,3.21,1.86,-0.65,2.60,-0.48,0.00
31.079,1.25,-0.24,0.65,5.64,3.74,2.84,-0.65,2.60,-0.48,0.00
31.138,1.14,-0.29,0.61,5.64,3.74,2.84,-0.65,2.60,-0.48,0.00
31.139,1.14,-0.29,0.61,5.56,4.37,3.88,-0.65,2.60,-0.48,0.00
31.139,1.14,-0.29,0.61,5.56,4.37,3.88,0.02,2.70,-1.38,0.00
31.208,1.14,-0.29,0.61,3.53,1.68,0.68,0.02,2.70,-1.38,0.00
31.209,1.14,-0.29,0.61,3.53,1.68,0.68,0.40,1.82,-1.62,0.00
31.209,0.93,-0.62,0.59,3.53,1.68,0.68,0.40,1.82,-1.62,0.00
31.256,0.78,-0.49,0.67,3.53,1.68,0.68,0.40,1.82,-1.62,0.00
31.256,0.78,-0.49,0.67,3.53,1.68,0.68,0.48,1.24,-1.36,0.00
31.256,0.78,-0.49,0.67,1.93,-1.16,0.87,0.48,1.24,-1.36,0.00
31.315,0.78,-0.49,0.67,1.93,-1.16,0.87,1.16,1.11,-1.25,0.00
31.316,0.76,-0.71,0.72,1.93,-1.16,0.87,1.16,1.11,-1.25,0.00
31.316,0.76,-0.71,0.72,0.61,-0.70,0.82,1.16,1.11,-1.25,0.00
31.374,0.85,-0.77,0.64,0.61,-0.70,0.82,1.16,1.11,-1.25,0.00
31.375,0.85,-0.77,0.64,0.51,-3.59,0.82,1.16,1.11,-1.25,0.00
31.435,0.85,-0.77,0.64,0.51,-3.59,0.82,1.46,0.66,-0.79,0.00
31.436,0.85,-0.77,0.64,1.31,-5.33,-0.85,1.46,0.66,-0.79,0.00
31.493,0.85,-0.77,0.64,1.31,-5.33,-0.85,1.23,1.03,-0.90,0.00
31.493,0.85,-0.77,0.64,2.10,-5.17,-1.32,1.23,1.03,-0.90,0.00
31.494,0.79,-0.66,0.53,2.10,-5.17,-1.32,1.23,1.03,-0.90,0.00
31.552,0.63,-0.52,0.49,2.10,-5.17,-1.32,1.23,1.03,-0.90,0.00
31.553,0.63,-0.52,0.49,2.10,-5.17,-1.32,0.82,0.95,-0.92,0.00
31.553,0.63,-0.52,0.49,0.33,-4.62,-3.63,0.82,0.95,-0.92,0.00
31.599,0.65,-0.43,0.39,0.33,-4.62,-3.63,0.82,0.95,-0.92,0.00
31.631,0.65,-0.43,0.39,0.39,-4.57,-3.08,0.82,0.95,-0.92,0.00
31.631,0.65,-0.43,0.39,0.39,-4.57,-3.08,0.97,0.81,-1.03,0.00
31.69,0.60,-0.30,0.39,0.39,-4.57,-3.08,0.97,0.81,-1.03,0.00
31.691,0.60,-0.30,0.39,0.39,-4.57,-3.08,-0.16,0.84,-1.38,0.00
31.691,0.60,-0.30,0.39,0.85,-3.33,-5.76,-0.16,0.84,-1.38,0.00
31.75,0.55,-0.31,0.90,0.85,-3.33,-5.76,-0.16,0.84,-1.38,0.00
31.751,0.55,-0.31,0.90,0.85,-3.33,-5.76,-0.83,0.94,-1.69,0.00
31.751,0.55,-0.31,0.90,1.05,-3.15,-2.92,-0.83,0.94,-1.69,0.00
31.781,0.55,-0.31,0.90,0.71,-2.89,0.26,-0.83,0.94,-1.69,0.00
31.829,0.50,-0.14,0.84,0.71,-2.89,0.26,-0.83,0.94,-1.69,0.00
31.829,0.50,-0.14,0.84,0.71,-2.89,0.26,-0.73,0.96,-1.80,0.00
31.83,0.50,-0.14,0.84,0.84,-1.36,-0.81,-0.73,0.96,-1.80,0.00
31.889,0.50,-0.14,0.84,0.84,-1.36,-0.81,-1.00,0.75,-2.14,0.00
31.889,0.30,-0.21,0.88,0.84,-1.36,-0.81,-1.00,0.75,-2.14,0.00
31.89,0.30,-0.21,0.88,-0.82,-2.13,-0.67,-1.00,0.75,-2.14,0.00
31.948,0.30,-0.21,0.88,-0.82,-2.13,-0.67,-0.59,0.09,-1.87,0.00
31.949,0.29,-0.15,1.03,-0.82,-2.13,-0.67,-0.59,0.09,-1.87,0.00
31.949,0.29,-0.15,1.03,-1.22,-1.74,1.07,-0.59,0.09,-1.87,0.00
32.007,0.29,-0.15,1.03,-1.22,-1.74,1.07,-0.37,0.03,-1.78,0.00
32.008,0.40,-0.07,1.00,-1.22,-1.74,1.07,-0.37,0.03,-1.78,0.00
32.009,0.40,-0.07,1.00,-0.12,-1.34,0.97,-0.37,0.03,-1.78,0.00
32.067,0.40,-0.07,1.00,-0.12,-1.34,0.97,-0.08,-0.35,-1.92,0.00
32.068,0.36,-0.07,0.84,-0.12,-1.34,0.97,-0.08,-0.35,-1.92,0.00
32.068,0.36,-0.07,0.84,-0.41,-1.63,0.16,-0.08,-0.35,-1.92,0.00
32.146,0.36,-0.07,0.84,-1.21,-1.80,-0.84,-0.08,-0.35,-1.92,0.00
32.147,0.36,-0.07,0.84,-1.21,-1.80,-0.84,0.02,-1.55,-1.75,0.00
32.148,0.48,-0.00,0.81,-1.21,-1.80,-0.84,0.02,-1.55,-1.75,0.00
32.206,0.59,0.01,0.80,-1.21,-1.80,-0.84,0.02,-1.55,-1.75,0.00
32.207,0.59,0.01,0.80,0.60,-1.20,-0.12,0.02,-1.55,-1.75,0.00
32.207,0.59,0.01,0.80,0.60,-1.20,-0.12,-0.49,-0.60,-1.82,0.00
32.264,0.54,0.02,0.75,0.60,-1.20,-0.12,-0.49,-0.60,-1.82,0.00
32.265,0.54,0.02,0.75,0.65,-1.79,-1.00,-0.49,-0.60,-1.82,0.00
32.266,0.54,0.02,0.75,0.65,-1.79,-1.00,-0.87,-0.39,-1.84,0.00
32.324,0.56,0.01,0.86,0.65,-1.79,-1.00,-0.87,-0.39,-1.84,0.00
32.325,0.56,0.01,0.86,0.27,-1.01,-0.74,-0.87,-0.39,-1.84,0.00
32.325,0.56,0.01,0.86,0.27,-1.01,-0.74,-1.20,-0.25,-1.55,0.00
32.383,0.45,0.01,0.84,0.27,-1.01,-0.74,-1.20,-0.25,-1.55,0.00
32.384,0.45,0.01,0.84,0.96,-1.25,-0.23,-1.20,-0.25,-1.55,0.00
32.385,0.45,0.01,0.84,0.96,-1.25,-0.23,-1.11,0.55,-1.68,0.00
32.443,0.45,0.01,0.84,0.22,-1.26,-0.49,-1.11,0.55,-1.68,0.00
32.444,0.42,0.05,0.90,0.22,-1.26,-0.49,-1.11,0.55,-1.68,0.00
32.502,0.42,0.05,0.90,0.66,-0.63,-0.17,-1.11,0.55,-1.68,0.00
32.503,0.42,0.05,0.90,0.66,-0.63,-0.17,-0.88,0.58,-1.63,0.00
32.562,0.42,0.05,0.90,0.66,-0.63,-0.17,-1.07,0.96,-1.54,0.00
32.562,0.23,0.04,0.95,0.66,-0.63,-0.17,-1.07,0.96,-1.54,0.00
32.562,0.23,0.04,0.95,0.07,-0.17,-0.62,-1.07,0.96,-1.54,0.00
32.589,0.23,0.04,0.95,0.07,-0.17,-0.62,-0.38,0.27,-0.89,0.00
32.59,0.16,0.06,1.01,0.07,-0.17,-0.62,-0.38,0.27,-0.89,0.00
32.738,0.21,0.12,1.01,0.07,-0.17,-0.62,-0.38,0.27,-0.89,0.00
32.738,0.21,0.12,1.01,0.07,-0.17,-0.62,0.07,-0.00,-0.75,0.00
32.738,0.21,0.12,1.01,0.00,0.00,0.00,0.07,-0.00,-0.75,0.00
32.781,0.21,0.15,0.98,0.00,0.00,0.00,0.07,-0.00,-0.75,0.00
32.781,0.21,0.15,0.98,0.00,0.00,0.00,0.47,-0.24,-0.77,0.00
32.839,0.21,0.15,0.98,0.02,-0.05,-0.02,0.47,-0.24,-0.77,0.00
32.839,0.16,0.16,0.88,0.02,-0.05,-0.02,0.47,-0.24,-0.77,0.00
32.84,0.16,0.16,0.88,0.02,-0.05,-0.02,0.14,0.04,-0.77,0.00
32.898,0.20,0.12,1.16,0.02,-0.05,-0.02,0.14,0.04,-0.77,0.00
32.899,0.20,0.12,1.16,0.02,-0.05,-0.02,0.08,0.31,-0.58,0.00
32.9,0.20,0.12,1.16,-0.13,0.17,-1.11,0.08,0.31,-0.58,0.00
32.956,0.20,0.12,1.16,0.30,-0.53,1.76,0.08,0.31,-0.58,0.00
32.957,0.06,0.20,0.86,0.30,-0.53,1.76,0.08,0.31,-0.58,0.00
32.957,0.06,0.20,0.86,0.30,-0.53,1.76,0.02,0.40,-0.50,0.00
33.016,0.15,0.22,1.01,0.30,-0.53,1.76,0.02,0.40,-0.50,0.00
33.016,0.15,0.22,1.01,-0.15,0.35,-1.14,0.02,0.40,-0.50,0.00
33.074,0.15,0.22,1.01,-0.15,0.35,-1.14,-0.20,0.18,-0.29,0.00
33.075,0.15,0.22,1.01,-0.29,0.29,0.23,-0.20,0.18,-0.29,0.00
33.134,0.15,0.22,1.01,0.11,0.54,-0.34,-0.20,0.18,-0.29,0.00
33.134,0.12,0.27,0.86,0.11,0.54,-0.34,-0.20,0.18,-0.29,0.00
33.134,0.12,0.27,0.86,0.11,0.54,-0.34,0.12,-0.11,-0.45,0.00
33.193,0.12,0.27,0.86,0.11,0.54,-0.34,-0.02,-0.04,-0.44,0.00
33.193,0.14,0.27,0.86,0.11,0.54,-0.34,-0.02,-0.04,-0.44,0.00
33.194,0.14,0.27,0.86,-0.05,0.76,-1.11,-0.02,-0.04,-0.44,0.00
33.254,0.14,0.27,0.86,-0.05,0.76,-1.11,-0.01,-0.36,-0.35,0.00
33.254,0.14,0.27,0.86,0.03,0.68,-1.04,-0.01,-0.36,-0.35,0.00
33.254,0.14,0.28,0.68,0.03,0.68,-1.04,-0.01,-0.36,-0.35,0.00
33.312,0.14,0.28,0.68,-0.47,0.71,-2.41,-0.01,-0.36,-0.35,0.00
33.313,0.14,0.28,0.68,-0.47,0.71,-2.41,-0.37,-0.97,-0.25,0.00
33.313,0.29,0.29,0.75,-0.47,0.71,-2.41,-0.37,-0.97,-0.25,0.00
33.372,0.29,0.29,0.75,0.47,1.03,-1.69,-0.37,-0.97,-0.25,0.00
33.373,0.37,0.25,0.87,0.47,1.03,-1.69,-0.37,-0.97,-0.25,0.00
33.373,0.37,0.25,0.87,0.47,1.03,-1.69,-0.68,-0.57,-0.54,0.00
33.431,0.37,0.25,0.87,1.27,1.13,-0.20,-0.68,-0.57,-0.54,0.00
33.431,0.37,0.16,1.12,1.27,1.13,-0.20,-0.68,-0.57,-0.54,0.00
33.431,0.37,0.16,1.12,1.27,1.13,-0.20,-0.87,-0.76,-0.46,0.00
33.49,0.37,0.16,1.12,1.27,1.13,-0.20,-0.43,-0.68,-0.37,0.00
33.49,0.53,0.12,1.15,1.27,1.13,-0.20,-0.43,-0.68,-0.37,0.00
33.491,0.53,0.12,1.15,0.19,0.51,1.16,-0.43,-0.68,-0.37,0.00
33.549,0.41,-0.04,0.97,0.19,0.51,1.16,-0.43,-0.68,-0.37,0.00
33.55,0.41,-0.04,0.97,1.41,0.26,2.69,-0.43,-0.68,-0.37,0.00
33.59,0.41,-0.04,0.97,1.41,0.26,2.69,-0.42,-0.46,-0.55,0.00
33.6,0.41,-0.04,0.97,1.37,-0.60,1.67,-0.42,-0.46,-0.55,0.00
33.649,0.41,-0.04,0.97,1.37,-0.60,1.67,-0.33,-1.19,-0.13,0.00
33.649,0.50,0.06,0.90,1.37,-0.60,1.67,-0.33,-1.19,-0.13,0.00
33.65,0.50,0.06,0.90,-0.63,-1.33,0.22,-0.33,-1.19,-0.13,0.00
33.707,0.66,0.16,0.95,-0.63,-1.33,0.22,-0.33,-1.19,-0.13,0.00
33.708,0.66,0.16,0.95,-0.63,-1.33,0.22,-0.45,-0.14,-0.43,0.00
33.709,0.66,0.16,0.95,1.20,0.33,0.44,-0.45,-0.14,-0.43,0.00
33.767,0.46,-0.08,0.58,1.20,0.33,0.44,-0.45,-0.14,-0.43,0.00
33.767,0.46,-0.08,0.58,2.01,0.66,0.23,-0.45,-0.14,-0.43,0.00
33.767,0.46,-0.08,0.58,2.01,0.66,0.23,-0.23,-0.11,-0.92,0.00
33.826,0.46,-0.08,0.58,2.01,0.66,0.23,-0.14,-2.05,-0.42,0.00
33.827,0.64,-0.12,0.47,2.01,0.66,0.23,-0.14,-2.05,-0.42,0.00
33.827,0.64,-0.12,0.47,-0.91,-1.73,-2.49,-0.14,-2.05,-0.42,0.00
33.886,0.64,-0.12,0.47,-0.40,-1.94,-2.46,-0.14,-2.05,-0.42,0.00
33.887,0.72,-0.18,0.52,-0.40,-1.94,-2.46,-0.14,-2.05,-0.42,0.00
33.944,0.72,-0.18,0.52,-0.40,-1.94,-2.46,-0.70,-2.56,-0.57,0.00
33.945,0.72,-0.18,0.52,0.14,-1.94,-1.27,-0.70,-2.56,-0.57,0.00
34.004,0.46,-0.25,0.44,0.14,-1.94,-1.27,-0.70,-2.56,-0.57,0.00
34.005,0.46,-0.25,0.44,0.14,-1.94,-1.27,-0.70,-1.94,-0.25,0.00
34.006,0.46,-0.25,0.44,-2.54,-2.46,-0.49,-0.70,-1.94,-0.25,0.00
34.063,0.46,-0.25,0.44,-2.54,-2.46,-0.49,-0.85,-1.00,0.77,0.00
34.063,0.56,-0.21,0.34,-2.54,-2.46,-0.49,-0.85,-1.00,0.77,0.00
34.063,0.56,-0.21,0.34,-3.34,-1.49,-1.74,-0.85,-1.00,0.77,0.00
34.089,0.80,-0.17,0.46,-3.34,-1.49,-1.74,-0.85,-1.00,0.77,0.00
34.142,0.80,-0.17,0.46,-3.34,-1.49,-1.74,-1.62,0.21,1.24,0.00
34.143,0.80,-0.17,0.46,-0.63,0.29,-1.25,-1.62,0.21,1.24,0.00
34.202,0.80,-0.17,0.46,1.36,1.34,0.31,-1.62,0.21,1.24,0.00
34.203,1.08,-0.08,0.68,1.36,1.34,0.31,-1.62,0.21,1.24,0.00
34.203,1.08,-0.08,0.68,1.36,1.34,0.31,-1.55,-0.24,1.39,0.00
34.261,1.08,-0.08,0.68,1.36,1.34,0.31,-1.30,-0.53,0.90,0.00
34.262,1.12,-0.30,0.86,1.36,1.34,0.31,-1.30,-0.53,0.90,0.00
34.262,1.12,-0.30,0.86,3.72,3.15,2.97,-1.30,-0.53,0.90,0.00
34.322,1.25,-0.24,1.08,3.72,3.15,2.97,-1.30,-0.53,0.90,0.00
34.323,1.25,-0.24,1.08,3.72,3.15,2.97,-0.41,-0.73,1.36,0.00
34.324,1.25,-0.24,1.08,3.12,0.57,4.66,-0.41,-0.73,1.36,0.00
34.38,1.25,-0.24,1.08,3.12,0.57,4.66,0.60,-0.49,0.41,0.00
34.381,1.31,0.06,0.82,3.12,0.57,4.66,0.60,-0.49,0.41,0.00
34.381,1.31,0.06,0.82,4.69,2.03,6.62,0.60,-0.49,0.41,0.00
34.441,1.31,0.06,0.82,5.47,4.80,3.31,0.60,-0.49,0.41,0.00
34.441,0.94,-0.29,0.84,5.47,4.80,3.31,0.60,-0.49,0.41,0.00
34.442,0.94,-0.29,0.84,5.47,4.80,3.31,0.62,0.84,-0.55,0.00
34.499,0.94,-0.29,0.84,5.47,4.80,3.31,1.72,0.16,-0.61,0.00
34.5,1.07,-0.28,0.65,5.47,4.80,3.31,1.72,0.16,-0.61,0.00
34.5,1.07,-0.28,0.65,1.54,0.41,3.00,1.72,0.16,-0.61,0.00
34.559,1.07,-0.28,0.65,2.07,-0.53,1.47,1.72,0.16,-0.61,0.00
34.559,1.07,-0.28,0.65,2.07,-0.53,1.47,1.15,0.99,-1.12,0.00
34.56,1.00,-0.32,0.70,2.07,-0.53,1.47,1.15,0.99,-1.12,0.00
34.6,1.00,-0.32,0.70,2.86,-1.64,-0.34,1.15,0.99,-1.12,0.00
34.637,0.73,-0.36,0.58,2.86,-1.64,-0.34,1.15,0.99,-1.12,0.00
34.638,0.73,-0.36,0.58,2.86,-1.64,-0.34,1.22,1.86,-1.32,0.00
34.638,0.73,-0.36,0.58,1.61,-3.03,-0.43,1.22,1.86,-1.32,0.00
34.696,0.73,-0.36,0.58,1.61,-3.03,-0.43,1.31,1.15,-1.15,0.00
34.696,0.68,-0.33,0.41,1.61,-3.03,-0.43,1.31,1.15,-1.15,0.00
34.697,0.68,-0.33,0.41,0.16,-3.98,-3.03,1.31,1.15,-1.15,0.00
34.756,0.58,-0.31,0.45,0.16,-3.98,-3.03,1.31,1.15,-1.15,0.00
34.756,0.58,-0.31,0.45,0.16,-3.98,-3.03,0.80,0.81,-0.92,0.00
34.756,0.58,-0.31,0.45,0.28,-4.32,-3.67,0.80,0.81,-0.92,0.00
34.835,0.58,-0.31,0.45,0.28,-4.32,-3.67,0.36,0.61,-0.56,0.00
34.835,0.57,-0.25,0.43,0.28,-4.32,-3.67,0.36,0.61,-0.56,0.00
34.835,0.57,-0.25,0.43,-0.04,-4.25,-3.48,0.36,0.61,-0.56,0.00
34.894,0.57,-0.25,0.43,-0.04,-4.25,-3.48,-0.25,-0.10,-0.19,0.00
34.895,0.57,-0.25,0.43,-0.18,-3.71,-3.62,-0.25,-0.10,-0.19,0.00
34.895,0.62,-0.24,0.44,-0.18,-3.71,-3.62,-0.25,-0.10,-0.19,0.00
34.953,0.66,-0.06,0.81,-0.18,-3.71,-3.62,-0.25,-0.10,-0.19,0.00
34.954,0.66,-0.06,0.81,-0.18,-3.71,-3.62,-0.83,-0.25,0.13,0.00
34.954,0.66,-0.06,0.81,0.13,-3.17,-3.63,-0.83,-0.25,0.13,0.00
35.013,0.66,-0.06,0.81,0.49,-1.48,-0.13,-0.83,-0.25,0.13,0.00
35.072,0.63,-0.05,0.63,0.49,-1.48,-0.13,-0.83,-0.25,0.13,0.00
35.072,0.63,-0.05,0.63,0.49,-1.48,-0.13,-0.19,-0.24,0.09,0.00
35.072,0.63,-0.05,0.63,0.20,-0.44,-0.16,-0.19,-0.24,0.09,0.00
35.131,0.63,-0.05,0.63,0.20,-0.44,-0.16,-0.58,-0.37,0.01,0.00
35.132,0.68,-0.13,0.68,0.20,-0.44,-0.16,-0.58,-0.37,0.01,0.00
35.132,0.68,-0.13,0.68,0.05,-1.19,-1.68,-0.58,-0.37,0.01,0.00
35.191,0.68,-0.13,0.68,0.05,-1.19,-1.68,-0.74,-0.03,-0.18,0.00
35.191,0.66,-0.07,0.83,0.05,-1.19,-1.68,-0.74,-0.03,-0.18,0.00
35.191,0.66,-0.07,0.83,0.48,-0.90,0.57,-0.74,-0.03,-0.18,0.00
35.25,0.55,-0.01,0.70,0.48,-0.90,0.57,-0.74,-0.03,-0.18,0.00
35.251,0.55,-0.01,0.70,0.48,-0.90,0.57,-0.63,0.21,-0.27,0.00
35.251,0.55,-0.01,0.70,-0.17,0.00,0.14,-0.63,0.21,-0.27,0.00
35.309,0.55,-0.01,0.70,-0.66,0.81,-0.67,-0.63,0.21,-0.27,0.00
35.309,0.62,0.12,0.74,-0.66,0.81,-0.67,-0.63,0.21,-0.27,0.00
35.31,0.62,0.12,0.74,-0.66,0.81,-0.67,-0.71,0.18,-0.07,0.00
35.368,0.62,0.12,0.74,-0.66,0.81,-0.67,-0.45,0.10,-0.07,0.00
35.369,0.63,0.14,0.82,-0.66,0.81,-0.67,-0.45,0.10,-0.07,0.00
35.369,0.63,0.14,0.82,0.21,2.16,-0.10,-0.45,0.10,-0.07,0.00
35.427,0.63,0.14,0.82,0.21,2.16,-0.10,-0.27,0.17,-0.05,0.00
35.428,0.63,0.14,0.82,0.17,2.23,0.50,-0.27,0.17,-0.05,0.00
35.428,0.62,0.05,0.80,0.17,2.23,0.50,-0.27,0.17,-0.05,0.00
35.487,0.54,-0.04,0.95,0.17,2.23,0.50,-0.27,0.17,-0.05,0.00
35.488,0.54,-0.04,0.95,0.17,2.23,0.50,-0.41,0.09,-0.02,0.00
35.488,0.54,-0.04,0.95,0.16,1.47,0.25,-0.41,0.09,-0.02,0.00
35.546,0.54,-0.04,0.95,-0.45,1.07,1.25,-0.41,0.09,-0.02,0.00
35.6,0.54,-0.04,0.95,-0.45,1.07,1.25,-0.15,-0.16,0.41,0.00
35.601,0.54,-0.04,0.95,-1.29,-0.21,2.31,-0.15,-0.16,0.41,0.00
35.601,0.49,-0.15,0.95,-1.29,-0.21,2.31,-0.15,-0.16,0.41,0.00
35.645,0.48,-0.08,0.87,-1.29,-0.21,2.31,-0.15,-0.16,0.41,0.00
35.646,0.48,-0.08,0.87,-1.37,0.75,1.44,-0.15,-0.16,0.41,0.00
35.646,0.48,-0.08,0.87,-1.37,0.75,1.44,0.22,-0.74,0.82,0.00
35.704,0.48,-0.08,0.87,-1.37,0.75,1.44,0.43,-0.74,1.13,0.00
35.705,0.45,-0.26,0.80,-1.37,0.75,1.44,0.43,-0.74,1.13,0.00
35.706,0.45,-0.26,0.80,-2.25,0.15,1.19,0.43,-0.74,1.13,0.00
35.764,0.45,-0.26,0.80,-1.38,-0.59,1.37,0.43,-0.74,1.13,0.00
35.764,0.45,-0.26,0.80,-1.38,-0.59,1.37,0.86,-1.44,1.52,0.00
35.764,0.84,-0.19,0.84,-1.38,-0.59,1.37,0.86,-1.44,1.52,0.00
35.823,1.12,-0.08,0.87,-1.38,-0.59,1.37,0.86,-1.44,1.52,0.00
35.824,1.12,-0.08,0.87,-1.38,-0.59,1.37,0.98,-1.20,0.81,0.00
35.824,1.12,-0.08,0.87,2.17,0.56,2.27,0.98,-1.20,0.81,0.00
35.883,1.12,-0.08,0.87,3.53,0.88,2.09,0.98,-1.20,0.81,0.00
35.883,0.80,-0.16,0.71,3.53,0.88,2.09,0.98,-1.20,0.81,0.00
35.941,0.80,-0.16,0.71,3.53,0.88,2.09,0.82,-0.21,-0.26,0.00
35.942,0.80,-0.16,0.71,0.00,-0.68,0.78,0.82,-0.21,-0.26,0.00
36.002,0.80,-0.16,0.71,-0.38,-1.79,-0.95,0.82,-0.21,-0.26,0.00
36.002,0.78,-0.21,0.46,-0.38,-1.79,-0.95,0.82,-0.21,-0.26,0.00
36.003,0.78,-0.21,0.46,-0.38,-1.79,-0.95,1.27,-0.61,-0.42,0.00
36.06,0.78,-0.21,0.46,-0.38,-1.79,-0.95,1.07,-1.05,-0.67,0.00
36.061,0.73,-0.28,0.19,-0.38,-1.79,-0.95,1.07,-1.05,-0.67,0.00
36.061,0.73,-0.28,0.19,-0.74,-2.54,-3.18,1.07,-1.05,-0.67,0.00
36.143,0.73,-0.28,0.19,-0.74,-2.54,-3.18,-0.12,-0.33,-0.27,0.00
36.143,0.73,-0.28,0.19,-1.88,-3.72,-3.43,-0.12,-0.33,-0.27,0.00
36.144,0.66,-0.41,0.19,-1.88,-3.72,-3.43,-0.12,-0.33,-0.27,0.00
36.199,0.66,-0.41,0.19,-1.88,-3.72,-3.43,-0.12,-1.65,0.47,0.00
36.2,0.74,-0.60,0.23,-1.88,-3.72,-3.43,-0.12,-1.65,0.47,0.00
36.201,0.74,-0.60,0.23,-2.02,-4.25,-1.17,-0.12,-1.65,0.47,0.00
36.258,0.74,-0.60,0.23,-2.02,-4.25,-1.17,-0.14,-2.34,1.54,0.00
36.259,0.86,-0.44,0.22,-2.02,-4.25,-1.17,-0.14,-2.34,1.54,0.00
36.259,0.86,-0.44,0.22,-1.51,-4.48,-0.51,-0.14,-2.34,1.54,0.00
36.318,0.91,-0.36,0.22,-1.51,-4.48,-0.51,-0.14,-2.34,1.54,0.00
36.319,0.91,-0.36,0.22,-1.51,-4.48,-0.51,-0.60,-0.98,1.63,0.00
36.319,0.91,-0.36,0.22,0.11,-0.08,0.11,-0.60,-0.98,1.63,0.00
36.376,0.91,-0.36,0.22,0.11,-0.08,0.11,-0.01,-1.57,1.88,0.00
36.376,0.85,-0.68,0.28,0.11,-0.08,0.11,-0.01,-1.57,1.88,0.00
36.376,0.85,-0.68,0.28,-0.64,-0.70,1.23,-0.01,-1.57,1.88,0.00
36.435,0.85,-0.68,0.28,-0.64,-0.70,1.23,0.13,-1.14,2.12,0.00
36.435,0.97,-0.69,0.19,-0.64,-0.70,1.23,0.13,-1.14,2.12,0.00
36.435,0.97,-0.69,0.19,0.20,-2.28,1.86,0.13,-1.14,2.12,0.00
36.495,0.97,-0.69,0.19,0.20,-2.28,1.86,-0.16,0.37,1.46,0.00
36.495,0.80,-0.49,0.12,0.20,-2.28,1.86,-0.16,0.37,1.46,0.00
36.495,0.80,-0.49,0.12,1.62,-1.06,1.12,-0.16,0.37,1.46,0.00
36.554,0.80,-0.49,0.12,1.62,-1.06,1.12,-0.05,-0.04,1.32,0.00
36.554,0.76,-0.55,0.03,1.62,-1.06,1.12,-0.05,-0.04,1.32,0.00
36.554,0.76,-0.55,0.03,0.50,1.44,0.46,-0.05,-0.04,1.32,0.00
36.633,0.76,-0.55,0.03,0.50,1.44,0.46,0.57,-1.05,1.40,0.00
36.633,0.96,-0.51,0.02,0.50,1.44,0.46,0.57,-1.05,1.40,0.00
36.634,0.96,-0.51,0.02,0.27,1.46,-0.62,0.57,-1.05,1.40,0.00
36.693,0.96,-0.51,0.02,0.27,1.46,-0.62,0.40,-0.41,1.08,0.00
36.694,0.96,-0.51,0.02,2.37,2.09,0.18,0.40,-0.41,1.08,0.00
36.694,1.02,-0.59,0.03,2.37,2.09,0.18,0.40,-0.41,1.08,0.00
36.751,1.15,-0.58,0.04,2.37,2.09,0.18,0.40,-0.41,1.08,0.00
36.752,1.15,-0.58,0.04,3.70,2.03,-0.66,0.40,-0.41,1.08,0.00
36.781,1.15,-0.58,0.04,3.70,2.03,-0.66,1.22,-1.62,0.66,0.00
36.782,1.15,-0.58,0.04,4.29,2.01,0.07,1.22,-1.62,0.66,0.00
36.83,1.15,-0.58,0.04,4.29,2.01,0.07,1.76,-2.32,-0.22,0.00
36.831,1.12,-0.83,-0.13,4.29,2.01,0.07,1.76,-2.32,-0.22,0.00
36.831,1.12,-0.83,-0.13,5.29,0.59,-0.31,1.76,-2.32,-0.22,0.00
36.89,0.93,-0.70,-0.12,5.29,0.59,-0.31,1.76,-2.32,-0.22,0.00
36.891,0.93,-0.70,-0.12,5.29,0.59,-0.31,0.66,-1.41,-0.50,0.00
36.891,0.93,-0.70,-0.12,3.70,-0.86,-2.19,0.66,-1.41,-0.50,0.00
36.949,0.73,-0.69,0.23,3.70,-0.86,-2.19,0.66,-1.41,-0.50,0.00
36.95,0.73,-0.69,0.23,1.72,0.27,-0.19,0.66,-1.41,-0.50,0.00
37.009,0.73,-0.69,0.23,1.72,0.27,-0.19,0.42,-1.45,-0.87,0.00
37.009,0.73,-0.69,0.23,-0.33,-0.36,3.09,0.42,-1.45,-0.87,0.00
37.068,0.73,-0.69,0.23,-0.33,-0.36,3.09,1.03,-2.00,-0.73,0.00
37.068,0.58,-0.78,0.08,-0.33,-0.36,3.09,1.03,-2.00,-0.73,0.00
37.068,0.58,-0.78,0.08,-1.71,-1.32,1.99,1.03,-2.00,-0.73,0.00
37.088,0.58,-0.78,0.08,-1.71,-1.32,1.99,0.74,-2.12,-0.32,0.00
37.089,0.57,-0.74,0.34,-1.71,-1.32,1.99,0.74,-2.12,-0.32,0.00
37.148,0.57,-0.74,0.34,-1.44,-0.78,4.69,0.74,-2.12,-0.32,0.00
37.207,0.57,-0.74,0.34,-1.44,-0.78,4.69,1.27,-2.26,-0.00,0.00
37.207,0.48,-0.81,0.38,-1.44,-0.78,4.69,1.27,-2.26,-0.00,0.00
37.207,0.48,-0.81,0.38,-1.95,-0.92,6.00,1.27,-2.26,-0.00,0.00
37.266,0.48,-0.81,0.38,-1.95,-0.92,6.00,1.67,-2.63,0.49,0.00
37.266,0.52,-0.88,0.42,-1.95,-0.92,6.00,1.67,-2.63,0.49,0.00
37.266,0.52,-0.88,0.42,-1.26,-1.18,6.14,1.67,-2.63,0.49,0.00
37.326,0.52,-0.88,0.42,-1.26,-1.18,6.14,2.21,-3.16,0.79,0.00
37.326,0.78,-0.89,0.34,-1.26,-1.18,6.14,2.21,-3.16,0.79,0.00
37.327,0.78,-0.89,0.34,0.77,-0.80,6.18,2.21,-3.16,0.79,0.00
37.386,0.78,-0.89,0.34,0.77,-0.80,6.18,1.83,-2.68,0.11,0.00
37.386,0.78,-0.78,0.35,0.77,-0.80,6.18,1.83,-2.68,0.11,0.00
37.386,0.78,-0.78,0.35,3.20,-0.27,5.28,1.83,-2.68,0.11,0.00
37.448,0.78,-0.78,0.35,3.20,-0.27,5.28,1.15,-1.34,-0.57,0.00
37.449,0.61,-0.91,0.40,3.20,-0.27,5.28,1.15,-1.34,-0.57,0.00
37.449,0.61,-0.91,0.40,1.66,0.20,5.36,1.15,-1.34,-0.57,0.00
37.503,0.61,-0.91,0.40,1.66,0.20,5.36,1.36,-1.08,-0.89,0.00
37.504,0.65,-0.97,0.31,1.66,0.20,5.36,1.36,-1.08,-0.89,0.00
37.504,0.65,-0.97,0.31,0.46,-1.22,5.52,1.36,-1.08,-0.89,0.00
37.563,0.56,-1.02,0.13,0.46,-1.22,5.52,1.36,-1.08,-0.89,0.00
37.563,0.56,-1.02,0.13,0.46,-1.22,5.52,1.49,-1.13,-1.34,0.00
37.564,0.56,-1.02,0.13,0.24,-2.00,3.97,1.49,-1.13,-1.34,0.00
37.642,0.56,-1.02,0.13,0.24,-2.00,3.97,1.05,-0.43,-1.17,0.00
37.642,0.56,-1.02,0.13,-1.11,-2.84,2.15,1.05,-0.43,-1.17,0.00
37.642,0.60,-0.87,-0.03,-1.11,-2.84,2.15,1.05,-0.43,-1.17,0.00
37.701,0.60,-0.87,-0.03,-1.11,-2.84,2.15,0.49,-0.19,-1.19,0.00
37.701,0.64,-0.88,-0.13,-1.11,-2.84,2.15,0.49,-0.19,-1.19,0.00
37.701,0.64,-0.88,-0.13,-1.44,-2.00,0.54,0.49,-0.19,-1.19,0.00
37.76,0.64,-0.88,-0.13,-1.44,-2.00,0.54,0.15,-0.42,-1.13,0.00
37.761,0.57,-0.84,-0.00,-1.44,-2.00,0.54,0.15,-0.42,-1.13,0.00
37.762,0.57,-0.84,-0.00,-1.00,-2.06,-0.71,0.15,-0.42,-1.13,0.00
37.782,0.57,-0.84,-0.00,-1.87,-2.41,0.36,0.15,-0.42,-1.13,0.00
37.841,0.57,-0.84,-0.00,-1.87,-2.41,0.36,0.26,-0.24,-0.74,0.00
37.843,0.44,-0.83,-0.01,-1.87,-2.41,0.36,0.26,-0.24,-0.74,0.00
37.843,0.44,-0.83,-0.01,-3.13,-2.65,1.26,0.26,-0.24,-0.74,0.00
37.9,0.44,-0.83,-0.01,-3.13,-2.65,1.26,0.62,-0.42,-0.22,0.00
37.901,0.44,-0.83,-0.01,-3.40,-1.77,-0.20,0.62,-0.42,-0.22,0.00
37.901,0.54,-0.71,-0.15,-3.40,-1.77,-0.20,0.62,-0.42,-0.22,0.00
37.959,0.50,-0.80,-0.36,-3.40,-1.77,-0.20,0.62,-0.42,-0.22,0.00
37.96,0.50,-0.80,-0.36,-3.40,-1.77,-0.20,0.47,-0.51,-0.03,0.00
37.96,0.50,-0.80,-0.36,-2.51,-1.18,-1.51,0.47,-0.51,-0.03,0.00
38.019,0.61,-0.76,-0.27,-2.51,-1.18,-1.51,0.47,-0.51,-0.03,0.00
38.019,0.61,-0.76,-0.27,-2.62,-2.09,-2.27,0.47,-0.51,-0.03,0.00
38.079,0.61,-0.76,-0.27,-1.04,-0.85,-1.37,0.47,-0.51,-0.03,0.00
38.08,0.61,-0.76,-0.27,-1.04,-0.85,-1.37,0.18,-0.57,0.57,0.00
38.136,0.61,-0.76,-0.27,-1.04,-0.85,-1.37,0.25,-0.61,0.74,0.00
38.137,0.70,-0.63,-0.29,-1.04,-0.85,-1.37,0.25,-0.61,0.74,0.00
38.138,0.70,-0.63,-0.29,0.07,0.62,-1.34,0.25,-0.61,0.74,0.00
38.195,0.64,-0.64,-0.30,0.07,0.62,-1.34,0.25,-0.61,0.74,0.00
38.195,0.64,-0.64,-0.30,0.07,0.62,-1.34,0.47,-1.07,0.72,0.00
38.196,0.64,-0.64,-0.30,-0.07,0.86,-1.14,0.47,-1.07,0.72,0.00
38.254,0.64,-0.64,-0.30,-0.07,0.86,-1.14,0.40,-0.90,0.87,0.00
38.255,0.66,-0.64,-0.21,-0.07,0.86,-1.14,0.40,-0.90,0.87,0.00
38.255,0.66,-0.64,-0.21,0.30,1.04,-0.76,0.40,-0.90,0.87,0.00
38.314,0.79,-0.60,-0.06,0.30,1.04,-0.76,0.40,-0.90,0.87,0.00
38.315,0.79,-0.60,-0.06,0.30,1.04,-0.76,0.31,0.04,0.91,0.00
38.315,0.79,-0.60,-0.06,1.57,1.85,0.42,0.31,0.04,0.91,0.00
38.373,0.90,-0.60,0.09,1.57,1.85,0.42,0.31,0.04,0.91,0.00
38.374,0.90,-0.60,0.09,1.57,1.85,0.42,0.28,1.07,0.72,0.00
38.374,0.90,-0.60,0.09,2.69,1.98,1.18,0.28,1.07,0.72,0.00
38.432,0.90,-0.60,0.09,2.69,1.98,1.18,0.10,1.16,0.30,0.00
38.433,1.08,-0.73,0.32,2.69,1.98,1.18,0.10,1.16,0.30,0.00
38.434,1.08,-0.73,0.32,3.90,2.12,1.56,0.10,1.16,0.30,0.00
38.492,1.08,-0.73,0.32,3.90,2.12,1.56,1.10,-0.40,-0.19,0.00
38.492,1.18,-0.73,0.66,3.90,2.12,1.56,1.10,-0.40,-0.19,0.00
38.492,1.18,-0.73,0.66,5.47,-0.18,5.03,1.10,-0.40,-0.19,0.00
38.55,1.00,-0.55,0.56,5.47,-0.18,5.03,1.10,-0.40,-0.19,0.00
38.551,1.00,-0.55,0.56,5.07,1.04,5.58,1.10,-0.40,-0.19,0.00
38.588,1.00,-0.55,0.56,5.07,1.04,5.58,1.95,-0.15,-1.20,0.00
38.629,1.00,-0.55,0.56,5.07,1.04,5.58,1.68,1.34,-2.01,0.00
38.63,0.95,-0.95,0.46,5.07,1.04,5.58,1.68,1.34,-2.01,0.00
38.63,0.95,-0.95,0.46,2.46,1.02,3.17,1.68,1.34,-2.01,0.00
38.689,0.95,-0.95,0.46,2.01,-3.86,0.76,1.68,1.34,-2.01,0.00
38.69,0.95,-0.95,0.46,2.01,-3.86,0.76,1.40,2.38,-1.79,0.00
38.691,0.77,-0.88,0.57,2.01,-3.86,0.76,1.40,2.38,-1.79,0.00
38.751,0.62,-0.77,0.60,2.01,-3.86,0.76,1.40,2.38,-1.79,0.00
38.752,0.62,-0.77,0.60,0.32,-4.58,0.42,1.40,2.38,-1.79,0.00
38.78,0.62,-0.77,0.60,0.32,-4.58,0.42,1.69,2.05,-1.49,0.00
38.828,0.62,-0.77,0.60,0.32,-4.58,0.42,1.76,1.89,-0.97,0.00
38.828,0.60,-0.66,0.54,0.32,-4.58,0.42,1.76,1.89,-0.97,0.00
38.828,0.60,-0.66,0.54,-0.35,-4.17,-0.46,1.76,1.89,-0.97,0.00
38.887,0.60,-0.66,0.54,-0.62,-4.44,-1.38,1.76,1.89,-0.97,0.00
38.887,0.47,-0.56,0.51,-0.62,-4.44,-1.38,1.76,1.89,-0.97,0.00
38.887,0.47,-0.56,0.51,-0.62,-4.44,-1.38,1.44,1.45,-0.71,0.00
38.946,0.47,-0.56,0.51,-0.59,-4.27,-3.43,1.44,1.45,-0.71,0.00
39.006,0.47,-0.56,0.51,-1.00,-3.85,-2.79,1.44,1.45,-0.71,0.00
39.006,0.47,-0.56,0.51,-1.00,-3.85,-2.79,1.19,0.91,-0.32,0.00
39.006,0.51,-0.43,0.47,-1.00,-3.85,-2.79,1.19,0.91,-0.32,0.00
39.064,0.51,-0.43,0.47,-0.17,-3.14,-3.54,1.19,0.91,-0.32,0.00
39.065,0.50,-0.41,0.54,-0.17,-3.14,-3.54,1.19,0.91,-0.32,0.00
39.065,0.50,-0.41,0.54,-0.17,-3.14,-3.54,0.71,0.24,-0.32,0.00
39.098,0.56,-0.42,0.53,-0.17,-3.14,-3.54,0.71,0.24,-0.32,0.00
39.098,0.56,-0.42,0.53,-0.74,-3.20,-2.82,0.71,0.24,-0.32,0.00
39.143,0.56,-0.42,0.53,0.07,-3.00,-2.77,0.71,0.24,-0.32,0.00
39.144,0.56,-0.42,0.53,0.07,-3.00,-2.77,0.05,0.01,-0.18,0.00
39.204,0.56,-0.42,0.53,0.07,-3.00,-2.77,-0.72,-0.22,-0.05,0.00
39.205,0.54,-0.26,0.80,0.07,-3.00,-2.77,-0.72,-0.22,-0.05,0.00
39.205,0.54,-0.26,0.80,-0.27,-1.18,0.03,-0.72,-0.22,-0.05,0.00
39.262,0.54,-0.07,0.79,-0.27,-1.18,0.03,-0.72,-0.22,-0.05,0.00
39.262,0.54,-0.07,0.79,-0.27,-1.18,0.03,-0.54,-0.22,-0.02,0.00
39.262,0.54,-0.07,0.79,-0.62,1.01,0.12,-0.54,-0.22,-0.02,0.00
39.321,0.62,-0.21,0.83,-0.62,1.01,0.12,-0.54,-0.22,-0.02,0.00
39.323,0.62,-0.21,0.83,-0.62,1.01,0.12,-0.34,-0.41,-0.18,0.00
39.324,0.62,-0.21,0.83,-0.06,-0.16,0.50,-0.34,-0.41,-0.18,0.00
39.381,0.63,-0.17,0.82,-0.06,-0.16,0.50,-0.34,-0.41,-0.18,0.00
39.381,0.63,-0.17,0.82,-0.06,-0.16,0.50,-0.36,-0.18,-0.35,0.00
39.381,0.63,-0.17,0.82,0.34,-0.37,0.59,-0.36,-0.18,-0.35,0.00
39.44,0.63,-0.17,0.82,0.34,-0.37,0.59,-0.45,0.30,-0.55,0.00
39.441,0.57,-0.14,0.77,0.34,-0.37,0.59,-0.45,0.30,-0.55,0.00
39.441,0.57,-0.14,0.77,0.01,0.28,0.19,-0.45,0.30,-0.55,0.00
39.499,0.57,-0.14,0.77,0.01,0.28,0.19,-0.58,0.22,-0.42,0.00
39.5,0.51,-0.12,0.76,0.01,0.28,0.19,-0.58,0.22,-0.42,0.00
39.5,0.51,-0.12,0.76,-0.56,0.44,-0.37,-0.58,0.22,-0.42,0.00
39.56,0.49,-0.06,0.90,-0.56,0.44,-0.37,-0.58,0.22,-0.42,0.00
39.56,0.49,-0.06,0.90,-0.56,0.44,-0.37,-0.17,0.43,-0.21,0.00
39.56,0.49,-0.06,0.90,-0.75,0.82,0.10,-0.17,0.43,-0.21,0.00
39.638,0.48,-0.00,0.85,-0.75,0.82,0.10,-0.17,0.43,-0.21,0.00
39.639,0.48,-0.00,0.85,-0.75,0.82,0.10,0.26,0.17,0.03,0.00
39.639,0.48,-0.00,0.85,-0.82,1.15,1.10,0.26,0.17,0.03,0.00
39.698,0.48,-0.00,0.85,-0.82,1.15,1.10,0.06,-0.45,0.02,0.00
39.698,0.50,0.01,0.80,-0.82,1.15,1.10,0.06,-0.45,0.02,0.00
39.699,0.50,0.01,0.80,-1.01,1.62,0.49,0.06,-0.45,0.02,0.00
39.758,0.50,0.01,0.80,-1.01,1.62,0.49,-0.34,-0.97,0.16,0.00
39.759,0.51,-0.05,0.85,-1.01,1.62,0.49,-0.34,-0.97,0.16,0.00
39.759,0.51,-0.05,0.85,-1.14,1.83,0.43,-0.34,-0.97,0.16,0.00
39.836,0.51,-0.05,0.85,-1.61,1.47,1.20,-0.34,-0.97,0.16,0.00
39.837,0.57,-0.06,0.99,-1.61,1.47,1.20,-0.34,-0.97,0.16,0.00
39.837,0.57,-0.06,0.99,-1.61,1.47,1.20,0.21,-1.43,0.51,0.00
39.895,0.57,-0.06,0.99,-1.52,1.16,2.79,0.21,-1.43,0.51,0.00
39.896,0.57,-0.06,0.99,-1.52,1.16,2.79,0.78,-0.67,0.26,0.00
39.896,0.69,-0.03,0.99,-1.52,1.16,2.79,0.78,-0.67,0.26,0.00
39.954,0.78,-0.06,0.95,-1.52,1.16,2.79,0.78,-0.67,0.26,0.00
39.955,0.78,-0.06,0.95,-1.52,1.16,2.79,0.80,-0.55,-0.05,0.00
39.957,0.78,-0.06,0.95,-0.68,1.18,3.39,0.80,-0.55,-0.05,0.00
40.014,0.78,-0.06,0.95,-0.13,0.65,2.92,0.80,-0.55,-0.05,0.00
40.073,0.88,-0.09,0.94,-0.13,0.65,2.92,0.80,-0.55,-0.05,0.00
40.074,0.88,-0.09,0.94,-0.13,0.65,2.92,1.13,-0.51,-0.48,0.00
40.074,0.88,-0.09,0.94,0.66,-0.45,3.07,1.13,-0.51,-0.48,0.00
40.133,0.88,-0.09,0.94,0.66,-0.45,3.07,1.06,0.07,-0.97,0.00
40.135,0.86,-0.11,0.82,0.66,-0.45,3.07,1.06,0.07,-0.97,0.00
40.135,0.86,-0.11,0.82,1.27,-1.44,2.48,1.06,0.07,-0.97,0.00
40.192,0.86,-0.11,0.82,1.27,-1.44,2.48,1.04,0.08,-1.08,0.00
40.192,0.86,-0.11,0.82,0.84,-2.40,1.20,1.04,0.08,-1.08,0.00
40.192,0.74,-0.13,0.63,0.84,-2.40,1.20,1.04,0.08,-1.08,0.00
40.251,0.74,-0.13,0.63,0.84,-2.40,1.20,0.94,-0.51,-0.85,0.00
40.252,0.58,-0.18,0.42,0.84,-2.40,1.20,0.94,-0.51,-0.85,0.00
40.252,0.58,-0.18,0.42,-0.41,-3.34,-0.14,0.94,-0.51,-0.85,0.00
40.311,0.45,-0.24,0.22,-0.41,-3.34,-0.14,0.94,-0.51,-0.85,0.00
40.311,0.45,-0.24,0.22,-0.41,-3.34,-0.14,0.25,-1.25,-0.03,0.00
40.312,0.45,-0.24,0.22,-2.07,-3.92,-1.49,0.25,-1.25,-0.03,0.00
40.369,0.45,-0.24,0.22,-2.07,-3.92,-1.49,-0.34,-2.21,0.95,0.00
40.37,0.49,-0.32,0.20,-2.07,-3.92,-1.49,-0.34,-2.21,0.95,0.00
40.37,0.49,-0.32,0.20,-3.97,-3.99,-2.33,-0.34,-2.21,0.95,0.00
40.429,0.49,-0.32,0.20,-3.97,-3.99,-2.33,-0.42,-2.46,1.88,0.00
40.43,0.65,-0.49,0.21,-3.97,-3.99,-2.33,-0.42,-2.46,1.88,0.00
40.431,0.65,-0.49,0.21,-4.51,-3.68,-1.52,-0.42,-2.46,1.88,0.00
40.488,0.65,-0.49,0.21,-4.51,-3.68,-1.52,-1.21,-1.39,3.12,0.00
40.489,0.83,-0.56,0.24,-4.51,-3.68,-1.52,-1.21,-1.39,3.12,0.00
40.49,0.83,-0.56,0.24,-3.47,-3.46,0.02,-1.21,-1.39,3.12,0.00
40.547,0.83,-0.56,0.24,-1.86,-2.65,0.50,-1.21,-1.39,3.12,0.00
40.548,0.96,-0.60,0.24,-1.86,-2.65,0.50,-1.21,-1.39,3.12,0.00
40.588,0.96,-0.60,0.24,-1.86,-2.65,0.50,-1.37,-0.50,3.49,0.00
40.599,0.96,-0.60,0.24,0.51,-0.70,1.53,-1.37,-0.50,3.49,0.00
40.647,0.96,-0.60,0.24,0.51,-0.70,1.53,-0.70,-0.98,3.05,0.00
40.648,0.96,-0.60,0.24,2.56,-0.14,2.23,-0.70,-0.98,3.05,0.00
40.649,1.17,-0.68,0.36,2.56,-0.14,2.23,-0.70,-0.98,3.05,0.00
40.706,1.17,-0.68,0.36,4.91,0.09,3.73,-0.70,-0.98,3.05,0.00
40.707,1.17,-0.68,0.36,4.91,0.09,3.73,0.39,-1.36,1.83,0.00
40.707,1.23,-0.64,0.30,4.91,0.09,3.73,0.39,-1.36,1.83,0.00
40.765,1.09,-0.58,0.20,4.91,0.09,3.73,0.39,-1.36,1.83,0.00
40.765,1.09,-0.58,0.20,4.91,0.09,3.73,-0.63,0.78,0.59,0.00
40.766,1.09,-0.58,0.20,5.30,0.90,2.66,-0.63,0.78,0.59,0.00
40.824,1.09,-0.58,0.20,5.30,0.90,2.66,-0.88,1.64,0.88,0.00
40.825,1.09,-0.58,0.20,4.17,1.66,1.60,-0.88,1.64,0.88,0.00
40.826,0.83,-0.58,0.13,4.17,1.66,1.60,-0.88,1.64,0.88,0.00
40.883,0.83,-0.58,0.13,2.40,2.09,0.89,-0.88,1.64,0.88,0.00
40.884,0.77,-0.57,0.12,2.40,2.09,0.89,-0.88,1.64,0.88,0.00
40.943,0.77,-0.57,0.12,2.40,2.09,0.89,-0.69,0.79,1.42,0.00
40.944,0.77,-0.57,0.12,2.22,2.73,0.67,-0.69,0.79,1.42,0.00
41.002,0.77,-0.57,0.12,3.51,2.84,0.85,-0.69,0.79,1.42,0.00
41.003,0.77,-0.57,0.12,3.51,2.84,0.85,0.17,-0.23,1.50,0.00
41.004,0.87,-0.60,0.12,3.51,2.84,0.85,0.17,-0.23,1.50,0.00
41.064,0.87,-0.60,0.12,3.51,2.84,0.85,0.53,-1.28,1.02,0.00
41.064,1.07,-0.57,0.08,3.51,2.84,0.85,0.53,-1.28,1.02,0.00
41.065,1.07,-0.57,0.08,5.17,2.96,0.53,0.53,-1.28,1.02,0.00
41.089,1.20,-0.62,0.05,5.17,2.96,0.53,0.53,-1.28,1.02,0.00
41.141,1.20,-0.62,0.05,5.17,2.96,0.53,0.29,-0.69,-0.31,0.00
41.142,1.20,-0.62,0.05,6.45,2.96,0.37,0.29,-0.69,-0.31,0.00
41.2,1.20,-0.62,0.05,6.45,2.96,0.37,-0.22,0.43,-1.06,0.00
41.201,1.20,-0.70,0.04,6.45,2.96,0.37,-0.22,0.43,-1.06,0.00
41.202,1.20,-0.70,0.04,6.36,1.61,-0.01,-0.22,0.43,-1.06,0.00
41.259,1.20,-0.70,0.04,6.36,1.61,-0.01,0.33,-0.16,-2.03,0.00
41.26,1.18,-0.73,0.07,6.36,1.61,-0.01,0.33,-0.16,-2.03,0.00
41.26,1.18,-0.73,0.07,5.15,0.41,0.03,0.33,-0.16,-2.03,0.00
41.319,1.18,-0.73,0.07,3.70,-1.16,0.50,0.33,-0.16,-2.03,0.00
41.32,1.11,-0.93,0.07,3.70,-1.16,0.50,0.33,-0.16,-2.03,0.00
41.32,1.11,-0.93,0.07,3.70,-1.16,0.50,0.44,-1.22,-2.95,0.00
41.378,1.11,-0.93,0.07,3.70,-1.16,0.50,0.80,-2.27,-2.82,0.00
41.378,0.95,-1.12,0.15,3.70,-1.16,0.50,0.80,-2.27,-2.82,0.00
41.378,0.95,-1.12,0.15,2.11,-4.36,1.29,0.80,-2.27,-2.82,0.00
41.439,0.81,-1.12,0.14,2.11,-4.36,1.29,0.80,-2.27,-2.82,0.00
41.44,0.81,-1.12,0.14,2.11,-4.36,1.29,0.72,-1.65,-1.98,0.00
41.44,0.81,-1.12,0.14,0.34,-7.17,2.95,0.72,-1.65,-1.98,0.00
41.498,0.81,-1.12,0.14,0.34,-7.17,2.95,-0.13,-0.32,-1.63,0.00
41.499,0.81,-1.12,0.14,-1.30,-8.22,3.31,-0.13,-0.32,-1.63,0.00
41.499,0.73,-1.00,0.07,-1.30,-8.22,3.31,-0.13,-0.32,-1.63,0.00
41.556,0.73,-1.00,0.07,-1.30,-8.22,3.31,-0.39,-0.04,-1.65,0.00
41.556,0.73,-1.00,0.07,-2.25,-8.02,2.65,-0.39,-0.04,-1.65,0.00
41.557,0.68,-0.87,-0.00,-2.25,-8.02,2.65,-0.39,-0.04,-1.65,0.00
41.589,0.68,-0.87,-0.00,-2.85,-7.74,2.20,-0.39,-0.04,-1.65,0.00
41.636,0.68,-0.87,-0.00,-3.36,-7.90,1.58,-0.39,-0.04,-1.65,0.00
41.637,0.57,-0.84,-0.07,-3.36,-7.90,1.58,-0.39,-0.04,-1.65,0.00
41.637,0.57,-0.84,-0.07,-3.36,-7.90,1.58,-0.94,-0.04,-1.77,0.00
41.694,0.57,-0.84,-0.07,-3.36,-7.90,1.58,-0.71,-1.93,-0.85,0.00
41.695,0.31,-0.87,-0.12,-3.36,-7.90,1.58,-0.71,-1.93,-0.85,0.00
41.695,0.31,-0.87,-0.12,-4.44,-8.26,2.35,-0.71,-1.93,-0.85,0.00
41.754,0.31,-0.87,-0.12,-4.44,-8.26,2.35,-1.04,-1.21,1.63,0.00
41.754,0.07,-0.94,-0.03,-4.44,-8.26,2.35,-1.04,-1.21,1.63,0.00
41.755,0.07,-0.94,-0.03,-6.50,-7.76,2.70,-1.04,-1.21,1.63,0.00
41.832,0.07,-0.94,-0.03,-6.50,-7.76,2.70,-1.51,1.82,4.37,0.00
41.833,0.25,-0.98,0.07,-6.50,-7.76,2.70,-1.51,1.82,4.37,0.00
41.833,0.25,-0.98,0.07,-8.15,-6.29,2.88,-1.51,1.82,4.37,0.00
41.892,0.25,-0.98,0.07,-5.42,-4.73,2.88,-1.51,1.82,4.37,0.00
41.893,0.70,-1.10,0.03,-5.42,-4.73,2.88,-1.51,1.82,4.37,0.00
41.893,0.70,-1.10,0.03,-5.42,-4.73,2.88,-1.98,2.46,4.17,0.00
41.951,1.02,-1.20,0.03,-5.42,-4.73,2.88,-1.98,2.46,4.17,0.00
41.952,1.02,-1.20,0.03,-0.30,-4.28,2.25,-1.98,2.46,4.17,0.00
42.011,1.02,-1.20,0.03,3.16,-4.65,2.38,-1.98,2.46,4.17,0.00
42.012,1.02,-1.20,0.03,3.16,-4.65,2.38,-3.17,2.83,3.84,0.00
42.07,1.13,-1.17,0.11,3.16,-4.65,2.38,-3.17,2.83,3.84,0.00
42.071,1.13,-1.17,0.11,3.16,-4.65,2.38,-4.82,4.21,2.19,0.00
42.071,1.13,-1.17,0.11,4.76,-4.71,3.33,-4.82,4.21,2.19,0.00
42.129,1.13,-1.17,0.11,4.76,-4.71,3.33,-5.38,4.91,0.90,0.00
