
time,gFx,gFy,gFz,ax,ay,az,wx,wy,wz,Latitude,Longitude,Speed (m/s),
0.0390,0.0000,0.0000,0.0000,0.0000,0.0000,0.0000,-0.0828,0.2066,-0.4339,0.00000000,0.00000000,0.00000000,
0.0950,0.0000,0.0000,0.0000,0.0000,0.0000,0.0000,0.0006,0.0008,-0.0015,25.25700667,83.00805167,0.00000000,
0.0970,0.0000,0.0000,0.0000,-0.1952,0.2647,0.3209,0.0006,0.0008,-0.0015,25.25700667,83.00805167,0.00000000,
0.1610,0.0000,0.0000,0.0000,-0.1952,0.2647,0.3209,0.0086,-0.0008,-0.0094,25.25700667,83.00805167,0.00000000,
0.1630,0.0000,0.0000,0.0000,0.1829,0.2754,0.0998,0.0086,-0.0008,-0.0094,25.25700667,83.00805167,0.00000000,
0.2320,0.0000,0.0000,0.0000,0.1829,0.2754,0.0998,0.0230,-0.0119,-0.0127,25.25700667,83.00805167,0.00000000,
0.2340,0.0000,0.0000,0.0000,0.1355,0.3194,-0.5918,0.0230,-0.0119,-0.0127,25.25700667,83.00805167,0.00000000,
0.2930,0.0000,0.0000,0.0000,0.1355,0.3194,-0.5918,0.0432,-0.0303,-0.0142,25.25700667,83.00805167,0.00000000,
0.2950,0.0000,0.0000,0.0000,0.0925,0.1005,-0.0845,0.0432,-0.0303,-0.0142,25.25700667,83.00805167,0.00000000,
0.3590,0.0000,0.0000,0.0000,0.0925,0.1005,-0.0845,0.0184,0.0068,-0.0426,25.25700667,83.00805167,0.00000000,
0.3610,0.0000,0.0000,0.0000,-0.4453,-0.0137,0.5929,0.0184,0.0068,-0.0426,25.25700667,83.00805167,0.00000000,
0.4100,-0.0140,0.3442,0.9036,-0.4453,-0.0137,0.5929,0.0184,0.0068,-0.0426,25.25700667,83.00805167,0.00000000,
0.4260,-0.0140,0.3442,0.9036,-0.4453,-0.0137,0.5929,0.1474,-0.0539,-0.0985,25.25700667,83.00805167,0.00000000,
0.4290,-0.0140,0.3442,0.9036,0.3128,0.1929,-0.4652,0.1474,-0.0539,-0.0985,25.25700667,83.00805167,0.00000000,
0.4760,0.0200,0.3402,0.8946,0.3128,0.1929,-0.4652,0.1474,-0.0539,-0.0985,25.25700667,83.00805167,0.00000000,
0.4910,0.0200,0.3402,0.8946,0.3128,0.1929,-0.4652,0.2249,-0.3030,0.0363,25.25700667,83.00805167,0.00000000,
0.4930,0.0200,0.3402,0.8946,0.3274,0.0025,-0.4545,0.2249,-0.3030,0.0363,25.25700667,83.00805167,0.00000000,
0.5420,0.0330,0.3162,0.9527,0.3274,0.0025,-0.4545,0.2249,-0.3030,0.0363,25.25700667,83.00805167,0.00000000,
0.5570,0.0330,0.3162,0.9527,0.3274,0.0025,-0.4545,-0.1169,-0.1758,0.3023,25.25700667,83.00805167,0.00000000,
0.5590,0.0330,0.3162,0.9527,0.3248,-0.1954,0.0995,-0.1169,-0.1758,0.3023,25.25700667,83.00805167,0.00000000,
0.6090,0.0430,0.3082,1.0247,0.3248,-0.1954,0.0995,-0.1169,-0.1758,0.3023,25.25700667,83.00805167,0.00000000,
0.6240,0.0430,0.3082,1.0247,0.3248,-0.1954,0.0995,-0.3199,-0.1267,0.4944,25.25700667,83.00805167,0.00000000,
0.6270,0.0430,0.3082,1.0247,0.0288,-0.3902,1.3577,-0.3199,-0.1267,0.4944,25.25700667,83.00805167,0.00000000,
0.6740,0.0550,0.2301,1.2079,0.0288,-0.3902,1.3577,-0.3199,-0.1267,0.4944,25.25700667,83.00805167,0.00000000,
0.6890,0.0550,0.2301,1.2079,0.0288,-0.3902,1.3577,-0.8802,0.0932,0.9156,25.25700667,83.00805167,0.00000000,
0.6910,0.0550,0.2301,1.2079,0.2061,-0.4019,1.9182,-0.8802,0.0932,0.9156,25.25700667,83.00805167,0.00000000,
0.7400,0.0310,0.2371,1.0266,0.2061,-0.4019,1.9182,-0.8802,0.0932,0.9156,25.25700667,83.00805167,0.00000000,
0.7550,0.0310,0.2371,1.0266,0.2061,-0.4019,1.9182,-0.4401,0.0570,0.3575,25.25700667,83.00805167,0.00000000,
0.7570,0.0310,0.2371,1.0266,-0.0297,0.0082,0.5381,-0.4401,0.0570,0.3575,25.25700667,83.00805167,0.00000000,
0.8060,0.0269,0.2561,0.8505,-0.0297,0.0082,0.5381,-0.4401,0.0570,0.3575,25.25700667,83.00805167,0.00000000,
0.8220,0.0269,0.2561,0.8505,-0.0297,0.0082,0.5381,0.1775,-0.0772,-0.2664,25.25700667,83.00805167,0.00000000,
0.8240,0.0269,0.2561,0.8505,0.2845,0.0792,-1.4246,0.1775,-0.0772,-0.2664,25.25700667,83.00805167,0.00000000,
0.8720,0.0981,0.2401,0.9897,0.2845,0.0792,-1.4246,0.1775,-0.0772,-0.2664,25.25700667,83.00805167,0.00000000,
0.8870,0.0981,0.2401,0.9897,0.2845,0.0792,-1.4246,0.0935,-0.3172,0.1250,25.25700667,83.00805167,0.00000000,
0.8890,0.0981,0.2401,0.9897,0.4702,-0.1076,0.2195,0.0935,-0.3172,0.1250,25.25700667,83.00805167,0.00000000,
0.9400,0.0490,0.2771,0.8876,0.4702,-0.1076,0.2195,0.0935,-0.3172,0.1250,25.25700667,83.00805167,0.00000000,
0.9530,0.0490,0.2771,0.8876,0.4702,-0.1076,0.2195,0.1620,-0.1142,-0.2408,25.25700667,83.00805167,0.00000000,
0.9540,0.0490,0.2771,0.8876,-0.1269,0.2039,-0.7614,0.1620,-0.1142,-0.2408,25.25700667,83.00805167,0.00000000,
1.0050,0.1010,0.3192,0.9606,-0.1269,0.2039,-0.7614,0.1620,-0.1142,-0.2408,25.25700667,83.00805167,0.00000000,
1.0200,0.1010,0.3192,0.9606,-0.1269,0.2039,-0.7614,0.3683,-0.2906,-0.3348,25.25700667,83.00805167,0.00000000,
1.0220,0.1010,0.3192,0.9606,0.4875,0.4088,-0.0547,0.3683,-0.2906,-0.3348,25.25700667,83.00805167,0.00000000,
1.0700,0.0790,0.3412,0.9606,0.4875,0.4088,-0.0547,0.3683,-0.2906,-0.3348,25.25700667,83.00805167,0.00000000,
1.0850,0.0790,0.3412,0.9606,0.4875,0.4088,-0.0547,0.3522,-0.2258,-0.2902,25.25700667,83.00805167,0.00000000,
1.0870,0.0790,0.3412,0.9606,0.0229,0.3555,-0.2158,0.3522,-0.2258,-0.2902,25.25700667,83.00805167,0.00000000,
1.1370,0.0450,0.3352,0.9496,0.0229,0.3555,-0.2158,0.3522,-0.2258,-0.2902,25.25700667,83.00805167,0.00000000,
1.1510,0.0450,0.3352,0.9496,0.0229,0.3555,-0.2158,0.2680,-0.0022,-0.4424,25.25700667,83.00805167,0.00000000,
1.1530,0.0450,0.3352,0.9496,-0.2268,0.2036,-0.5372,0.2680,-0.0022,-0.4424,25.25700667,83.00805167,0.00000000,
1.2020,0.1040,0.3792,0.8986,-0.2268,0.2036,-0.5372,0.2680,-0.0022,-0.4424,25.25700667,83.00805167,0.00000000,
1.2220,0.1040,0.3792,0.8986,-0.2268,0.2036,-0.5372,0.4997,-0.2716,-0.2227,25.25700667,83.00805167,0.00000000,
1.2240,0.1040,0.3792,0.8986,0.3616,0.1182,0.2896,0.4997,-0.2716,-0.2227,25.25700667,83.00805167,0.00000000,
1.2690,0.0640,0.3822,0.8936,0.3616,0.1182,0.2896,0.4997,-0.2716,-0.2227,25.25700667,83.00805167,0.00000000,
1.2830,0.0640,0.3822,0.8936,0.3616,0.1182,0.2896,0.2155,-0.0254,-0.2320,25.25700667,83.00805167,0.00000000,
1.2850,0.0640,0.3822,0.8936,-0.6753,0.2316,-0.0070,0.2155,-0.0254,-0.2320,25.25700667,83.00805167,0.00000000,
1.3340,0.0810,0.2892,1.1478,-0.6753,0.2316,-0.0070,0.2155,-0.0254,-0.2320,25.25700667,83.00805167,0.00000000,
1.3490,0.0810,0.2892,1.1478,-0.6753,0.2316,-0.0070,-0.6267,0.3341,0.4375,25.25700667,83.00805167,0.00000000,
1.3510,0.0810,0.2892,1.1478,0.2227,-0.8929,2.1839,-0.6267,0.3341,0.4375,25.25700667,83.00805167,0.00000000,
1.4000,0.0650,0.2621,0.9076,0.2227,-0.8929,2.1839,-0.6267,0.3341,0.4375,25.25700667,83.00805167,0.00000000,
1.4160,0.0650,0.2621,0.9076,0.2227,-0.8929,2.1839,-0.5749,0.1754,0.6623,25.25700667,83.00805167,0.00000000,
1.4180,0.0650,0.2621,0.9076,-0.1345,-0.2714,-0.4601,-0.5749,0.1754,0.6623,25.25700667,83.00805167,0.00000000,
1.4670,0.0640,0.2451,0.8326,-0.1345,-0.2714,-0.4601,-0.5749,0.1754,0.6623,25.25700667,83.00805167,0.00000000,
1.4810,0.0640,0.2451,0.8326,-0.1345,-0.2714,-0.4601,-0.1038,0.1099,0.1283,25.25700667,83.00805167,0.00000000,
1.4830,0.0640,0.2451,0.8326,0.1593,-0.4145,-1.3641,-0.1038,0.1099,0.1283,25.25700667,83.00805167,0.00000000,
1.5320,0.0630,0.2521,0.8426,0.1593,-0.4145,-1.3641,-0.1038,0.1099,0.1283,25.25700667,83.00805167,0.00000000,
1.5470,0.0630,0.2521,0.8426,0.1593,-0.4145,-1.3641,-0.0047,0.0184,0.0639,25.25700667,83.00805167,0.00000000,
1.5490,0.0630,0.2521,0.8426,-0.4697,-0.1883,-0.6088,-0.0047,0.0184,0.0639,25.25700667,83.00805167,0.00000000,
1.5990,-0.0130,0.3302,0.9126,-0.4697,-0.1883,-0.6088,-0.0047,0.0184,0.0639,25.25700667,83.00805167,0.00000000,
1.6140,-0.0130,0.3302,0.9126,-0.4697,-0.1883,-0.6088,0.2015,0.3023,-0.6970,25.25700667,83.00805167,0.00000000,
1.6160,-0.0130,0.3302,0.9126,-0.5244,0.3932,-0.4335,0.2015,0.3023,-0.6970,25.25700667,83.00805167,0.00000000,
1.6640,0.0340,0.4052,0.8966,-0.5244,0.3932,-0.4335,0.2015,0.3023,-0.6970,25.25700667,83.00805167,0.00000000,
1.6790,0.0340,0.4052,0.8966,-0.5244,0.3932,-0.4335,0.7524,-0.1494,-0.8676,25.25700667,83.00805167,0.00000000,
1.6810,0.0340,0.4052,0.8966,0.0852,0.7697,0.2657,0.7524,-0.1494,-0.8676,25.25700667,83.00805167,0.00000000,
1.7300,0.0610,0.4433,0.9747,0.0852,0.7697,0.2657,0.7524,-0.1494,-0.8676,25.25700667,83.00805167,0.00000000,
1.7450,0.0610,0.4433,0.9747,0.0852,0.7697,0.2657,0.5579,-0.3028,-0.2684,25.25700667,83.00805167,0.00000000,
1.7470,0.0610,0.4433,0.9747,0.4734,0.6132,0.8569,0.5579,-0.3028,-0.2684,25.25700667,83.00805167,0.00000000,
1.7960,0.1210,0.4043,0.9856,0.4734,0.6132,0.8569,0.5579,-0.3028,-0.2684,25.25700667,83.00805167,0.00000000,
1.8120,0.1210,0.4043,0.9856,0.4734,0.6132,0.8569,0.0177,-0.2911,0.4285,25.25700667,83.00805167,0.00000000,
1.8140,0.1210,0.4043,0.9856,0.3217,-0.1323,1.2037,0.0177,-0.2911,0.4285,25.25700667,83.00805167,0.00000000,
1.8620,0.1370,0.3542,0.8476,0.3217,-0.1323,1.2037,0.0177,-0.2911,0.4285,25.25700667,83.00805167,0.00000000,
1.8770,0.1370,0.3542,0.8476,0.3217,-0.1323,1.2037,-0.2122,-0.1212,0.5124,25.25700667,83.00805167,0.00000000,
1.8790,0.1370,0.3542,0.8476,0.5963,-0.0784,-0.8045,-0.2122,-0.1212,0.5124,25.25700667,83.00805167,0.00000000,
1.9300,0.0380,0.2501,1.1338,0.5963,-0.0784,-0.8045,-0.2122,-0.1212,0.5124,25.25700667,83.00805167,0.00000000,
1.9430,0.0380,0.2501,1.1338,0.5963,-0.0784,-0.8045,-0.6185,0.2488,0.4683,25.25700667,83.00805167,0.00000000,
1.9440,0.0380,0.2501,1.1338,-0.4546,-0.8509,1.9149,-0.6185,0.2488,0.4683,25.25700667,83.00805167,0.00000000,
1.9940,0.0600,0.2441,1.0037,-0.4546,-0.8509,1.9149,-0.6185,0.2488,0.4683,25.25700667,83.00805167,0.00000000,
2.0110,0.0600,0.2441,1.0037,-0.4546,-0.8509,1.9149,-0.7277,0.3495,0.4890,25.25700667,83.00805167,0.00000000,
2.0130,0.0600,0.2441,1.0037,0.0695,0.0669,-0.9051,-0.7277,0.3495,0.4890,25.25700667,83.00805167,0.00000000,
2.0600,0.0490,0.2842,0.9456,0.0695,0.0669,-0.9051,-0.7277,0.3495,0.4890,25.25700667,83.00805167,0.00000000,
2.0750,0.0490,0.2842,0.9456,0.0695,0.0669,-0.9051,0.0556,0.0867,-0.2325,25.25700667,83.00805167,0.00000000,
2.0770,0.0490,0.2842,0.9456,-0.0629,0.1089,-0.1514,0.0556,0.0867,-0.2325,25.25700667,83.00805167,0.00000000,
2.1270,0.0940,0.3562,0.8186,-0.0629,0.1089,-0.1514,0.0556,0.0867,-0.2325,25.25700667,83.00805167,0.00000000,
2.1410,0.0940,0.3562,0.8186,-0.0629,0.1089,-0.1514,0.5669,-0.3728,-0.3829,25.25700667,83.00805167,0.00000000,
2.1430,0.0940,0.3562,0.8186,0.2701,0.5204,-1.3004,0.5669,-0.3728,-0.3829,25.25700667,83.00805167,0.00000000,
2.1930,0.0931,0.3933,0.8415,0.2701,0.5204,-1.3004,0.5669,-0.3728,-0.3829,25.25700667,83.00805167,0.00000000,
2.2130,0.0931,0.3933,0.8415,0.2701,0.5204,-1.3004,0.7422,-0.3772,-0.5345,25.25700667,83.00805167,0.00000000,
2.2180,0.0931,0.3933,0.8415,0.2037,0.4367,-0.8369,0.7422,-0.3772,-0.5345,25.25700667,83.00805167,0.00000000,
2.2610,0.0469,0.3912,0.9006,0.2037,0.4367,-0.8369,0.7422,-0.3772,-0.5345,25.25700667,83.00805167,0.00000000,
2.2730,0.0469,0.3912,0.9006,0.2037,0.4367,-0.8369,0.3847,-0.0295,-0.5286,25.25700667,83.00805167,0.00000000,
2.2740,0.0469,0.3912,0.9006,-0.4901,0.0874,-0.3955,0.3847,-0.0295,-0.5286,25.25700667,83.00805167,0.00000000,
2.3240,-0.0100,0.4372,0.9396,-0.4901,0.0874,-0.3955,0.3847,-0.0295,-0.5286,25.25700667,83.00805167,0.00000000,
2.3390,-0.0100,0.4372,0.9396,-0.4901,0.0874,-0.3955,0.2822,0.2145,-0.7163,25.25700667,83.00805167,0.00000000,
2.3410,-0.0100,0.4372,0.9396,-0.4775,0.3157,0.2492,0.2822,0.2145,-0.7163,25.25700667,83.00805167,0.00000000,
2.3900,0.0590,0.4303,0.9897,-0.4775,0.3157,0.2492,0.2822,0.2145,-0.7163,25.25700667,83.00805167,0.00000000,
2.4060,0.0590,0.4303,0.9897,-0.4775,0.3157,0.2492,0.1064,0.0407,-0.1216,25.25700667,83.00805167,0.00000000,
2.4080,0.0590,0.4303,0.9897,0.3030,0.1589,0.7762,0.1064,0.0407,-0.1216,25.25700667,83.00805167,0.00000000,
2.4560,-0.0209,0.4412,0.9477,0.3030,0.1589,0.7762,0.1064,0.0407,-0.1216,25.25700667,83.00805167,0.00000000,
2.4710,-0.0209,0.4412,0.9477,0.3030,0.1589,0.7762,-0.0383,0.1365,-0.0508,25.25700667,83.00805167,0.00000000,
2.4730,-0.0209,0.4412,0.9477,-0.2633,0.0608,0.9497,-0.0383,0.1365,-0.0508,25.25700667,83.00805167,0.00000000,
2.5220,0.1801,0.2601,1.1858,-0.2633,0.0608,0.9497,-0.0383,0.1365,-0.0508,25.25700667,83.00805167,0.00000000,
2.5370,0.1801,0.2601,1.1858,-0.2633,0.0608,0.9497,-1.0720,-0.0666,1.6800,25.25700667,83.00805167,0.00000000,
2.5390,0.1801,0.2601,1.1858,1.1994,-0.9351,2.4719,-1.0720,-0.0666,1.6800,25.25700667,83.00805167,0.00000000,
2.5890,-0.1060,0.2851,0.8626,1.1994,-0.9351,2.4719,-1.0720,-0.0666,1.6800,25.25700667,83.00805167,0.00000000,
2.6040,-0.1060,0.2851,0.8626,1.1994,-0.9351,2.4719,-0.5170,0.5747,0.0828,25.25700667,83.00805167,0.00000000,
2.6070,-0.1060,0.2851,0.8626,-1.5349,-0.1844,-0.8768,-0.5170,0.5747,0.0828,25.25700667,83.00805167,0.00000000,
2.6540,0.0881,0.2942,0.7335,-1.5349,-0.1844,-0.8768,-0.5170,0.5747,0.0828,25.25700667,83.00805167,0.00000000,
2.6690,0.0881,0.2942,0.7335,-1.5349,-0.1844,-0.8768,0.1861,-0.0196,-0.0496,25.25700667,83.00805167,0.00000000,
2.6700,0.0881,0.2942,0.7335,0.4823,-0.1705,-2.1230,0.1861,-0.0196,-0.0496,25.25700667,83.00805167,0.00000000,
2.7200,-0.0830,0.2582,0.7965,0.4823,-0.1705,-2.1230,0.1861,-0.0196,-0.0496,25.25700667,83.00805167,0.00000000,
2.7350,-0.0830,0.2582,0.7965,0.4823,-0.1705,-2.1230,0.0430,0.4430,-0.5891,25.25700667,83.00805167,0.00000000,
2.7370,-0.0830,0.2582,0.7965,-0.9268,-0.4900,-1.6207,0.0430,0.4430,-0.5891,25.25700667,83.00805167,0.00000000,
2.7870,0.0780,0.3502,0.8265,-0.9268,-0.4900,-1.6207,0.0430,0.4430,-0.5891,25.25700667,83.00805167,0.00000000,
2.8020,0.0780,0.3502,0.8265,-0.9268,-0.4900,-1.6207,0.3848,-0.2525,-0.1416,25.25700667,83.00805167,0.00000000,
2.8040,0.0780,0.3502,0.8265,0.7071,0.0993,-1.1221,0.3848,-0.2525,-0.1416,25.25700667,83.00805167,0.00000000,
2.8520,0.0109,0.3762,0.9196,0.7071,0.0993,-1.1221,0.3848,-0.2525,-0.1416,25.25700667,83.00805167,0.00000000,
2.8670,0.0109,0.3762,0.9196,0.7071,0.0993,-1.1221,0.3690,-0.2431,-0.1381,25.25700667,83.00805167,0.00000000,
2.8690,0.0109,0.3762,0.9196,-0.1201,0.1197,-0.1194,0.3690,-0.2431,-0.1381,25.25700667,83.00805167,0.00000000,
2.9220,0.0430,0.4002,1.0147,-0.1201,0.1197,-0.1194,0.3690,-0.2431,-0.1381,25.25700667,83.00805167,0.00000000,
2.9330,0.0430,0.4002,1.0147,-0.1201,0.1197,-0.1194,0.0674,-0.1060,0.0170,25.25703833,83.00800500,0.22184528,
2.9350,0.0430,0.4002,1.0147,0.3203,0.3538,1.2965,0.0674,-0.1060,0.0170,25.25703833,83.00800500,0.22184528,
2.9840,0.0780,0.4212,1.0377,0.3203,0.3538,1.2965,0.0674,-0.1060,0.0170,25.25703833,83.00800500,0.22184528,
3.0000,0.0780,0.4212,1.0377,0.3203,0.3538,1.2965,-0.0302,-0.2039,0.2520,25.25703833,83.00800500,0.22184528,
3.0020,0.0780,0.4212,1.0377,0.3154,0.5116,1.0651,-0.0302,-0.2039,0.2520,25.25703833,83.00800500,0.22184528,
3.0500,0.1381,0.4043,1.0427,0.3154,0.5116,1.0651,-0.0302,-0.2039,0.2520,25.25703833,83.00800500,0.22184528,
3.0650,0.1381,0.4043,1.0427,0.3154,0.5116,1.0651,0.0431,-0.2940,0.2940,25.25703833,83.00800500,0.22184528,
3.0670,0.1381,0.4043,1.0427,0.7003,0.3025,1.1437,0.0431,-0.2940,0.2940,25.25703833,83.00800500,0.22184528,
3.1170,-0.0469,0.2632,1.0828,0.7003,0.3025,1.1437,0.0431,-0.2940,0.2940,25.25703833,83.00800500,0.22184528,
3.1360,-0.0469,0.2632,1.0828,0.7003,0.3025,1.1437,-0.7397,0.4298,0.2426,25.25703833,83.00800500,0.22184528,
3.1390,-0.0469,0.2632,1.0828,-1.0400,-0.7052,1.3898,-0.7397,0.4298,0.2426,25.25703833,83.00800500,0.22184528,
3.1860,0.0450,0.2321,0.9006,-1.0400,-0.7052,1.3898,-0.7397,0.4298,0.2426,25.25703833,83.00800500,0.22184528,
3.2100,0.0450,0.2321,0.9006,-1.0400,-0.7052,1.3898,-0.5256,0.2332,0.2912,25.25703833,83.00800500,0.22184528,
3.2120,0.0450,0.2321,0.9006,0.0515,-0.4971,-0.6104,-0.5256,0.2332,0.2912,25.25703833,83.00800500,0.22184528,
3.2550,0.0950,0.2281,1.0066,0.0515,-0.4971,-0.6104,-0.5256,0.2332,0.2912,25.25703833,83.00800500,0.22184528,
3.2700,0.0950,0.2281,1.0066,0.0515,-0.4971,-0.6104,-0.4074,-0.0782,0.5726,25.25703833,83.00800500,0.22184528,
3.2720,0.0950,0.2281,1.0066,0.4231,-0.3750,0.4262,-0.4074,-0.0782,0.5726,25.25703833,83.00800500,0.22184528,
3.3140,0.0970,0.2842,0.8515,0.4231,-0.3750,0.4262,-0.4074,-0.0782,0.5726,25.25703833,83.00800500,0.22184528,
3.3290,0.0970,0.2842,0.8515,0.4231,-0.3750,0.4262,-0.0025,-0.2627,0.2391,25.25703833,83.00800500,0.22184528,
3.3300,0.0970,0.2842,0.8515,0.2471,0.2594,-1.1037,-0.0025,-0.2627,0.2391,25.25703833,83.00800500,0.22184528,
3.3800,0.1081,0.3332,0.8076,0.2471,0.2594,-1.1037,-0.0025,-0.2627,0.2391,25.25703833,83.00800500,0.22184528,
3.3970,0.1081,0.3332,0.8076,0.2471,0.2594,-1.1037,0.6679,-0.4545,-0.4534,25.25703833,83.00800500,0.22184528,
3.4020,0.1081,0.3332,0.8076,-0.0627,0.2981,-0.9222,0.6679,-0.4545,-0.4534,25.25703833,83.00800500,0.22184528,
3.4510,0.0250,0.3733,0.7855,-0.0627,0.2981,-0.9222,0.6679,-0.4545,-0.4534,25.25703833,83.00800500,0.22184528,
3.4610,0.0250,0.3733,0.7855,-0.0627,0.2981,-0.9222,0.6376,0.0038,-0.9291,25.25703833,83.00800500,0.22184528,
3.4630,0.0250,0.3733,0.7855,-0.5346,0.2418,-1.4607,0.6376,0.0038,-0.9291,25.25703833,83.00800500,0.22184528,
3.5130,-0.0109,0.4112,0.9987,-0.5346,0.2418,-1.4607,0.6376,0.0038,-0.9291,25.25703833,83.00800500,0.22184528,
3.5280,-0.0109,0.4112,0.9987,-0.5346,0.2418,-1.4607,0.2970,0.3073,-0.8924,25.25703833,83.00800500,0.22184528,
3.5310,-0.0109,0.4112,0.9987,-0.5284,0.3723,0.6984,0.2970,0.3073,-0.8924,25.25703833,83.00800500,0.22184528,
3.5800,0.0610,0.4033,1.0507,-0.5284,0.3723,0.6984,0.2970,0.3073,-0.8924,25.25703833,83.00800500,0.22184528,
3.5960,0.0610,0.4033,1.0507,-0.5284,0.3723,0.6984,0.0048,0.0494,-0.1062,25.25703833,83.00800500,0.22184528,
3.5990,0.0610,0.4033,1.0507,-0.2863,0.2393,1.1812,0.0048,0.0494,-0.1062,25.25703833,83.00800500,0.22184528,
3.6460,0.0460,0.4012,1.1367,-0.2863,0.2393,1.1812,0.0048,0.0494,-0.1062,25.25703833,83.00800500,0.22184528,
3.6600,0.0460,0.4012,1.1367,-0.2863,0.2393,1.1812,0.0315,0.1781,-0.3106,25.25703833,83.00800500,0.22184528,
3.6620,0.0460,0.4012,1.1367,0.3358,0.1974,2.0735,0.0315,0.1781,-0.3106,25.25703833,83.00800500,0.22184528,
3.7110,-0.0030,0.2081,1.1678,0.3358,0.1974,2.0735,0.0315,0.1781,-0.3106,25.25703833,83.00800500,0.22184528,
3.7260,-0.0030,0.2081,1.1678,0.3358,0.1974,2.0735,-1.2604,0.3027,1.2557,25.25703833,83.00800500,0.22184528,
3.7300,-0.0030,0.2081,1.1678,-0.3034,-0.9630,2.1127,-1.2604,0.3027,1.2557,25.25703833,83.00800500,0.22184528,
3.7770,-0.1451,0.2561,0.8676,-0.3034,-0.9630,2.1127,-1.2604,0.3027,1.2557,25.25703833,83.00800500,0.22184528,
3.8020,-0.1451,0.2561,0.8676,-0.3034,-0.9630,2.1127,-0.4287,0.7404,-0.4227,25.25703833,83.00800500,0.22184528,
3.8050,-0.1451,0.2561,0.8676,-0.6084,-0.0835,-1.1132,-0.4287,0.7404,-0.4227,25.25703833,83.00800500,0.22184528,
3.8420,0.0960,0.2761,0.9136,-0.6084,-0.0835,-1.1132,-0.4287,0.7404,-0.4227,25.25703833,83.00800500,0.22184528,
3.8680,0.0960,0.2761,0.9136,-0.6084,-0.0835,-1.1132,0.0220,-0.2293,0.4717,25.25703833,83.00800500,0.22184528,
3.8700,0.0960,0.2761,0.9136,1.2205,-0.0590,-0.2445,0.0220,-0.2293,0.4717,25.25703833,83.00800500,0.22184528,
3.9100,-0.0200,0.2491,0.8696,1.2205,-0.0590,-0.2445,0.0220,-0.2293,0.4717,25.25703833,83.00800500,0.22184528,
3.9240,-0.0200,0.2491,0.8696,1.2205,-0.0590,-0.2445,-0.0552,-0.0310,0.2963,25.25703833,83.00800500,0.22184528,
3.9260,-0.0200,0.2491,0.8696,-0.2376,-0.2240,-0.9150,-0.0552,-0.0310,0.2963,25.25703833,83.00800500,0.22184528,
3.9750,0.0150,0.2801,0.8305,-0.2376,-0.2240,-0.9150,-0.0552,-0.0310,0.2963,25.25703833,83.00800500,0.22184528,
3.9900,0.0150,0.2801,0.8305,-0.2376,-0.2240,-0.9150,0.2533,-0.1217,-0.0481,25.25703833,83.00800500,0.22184528,
3.9920,0.0150,0.2801,0.8305,-0.0441,-0.0574,-1.3456,0.2533,-0.1217,-0.0481,25.25703833,83.00800500,0.22184528,
4.0400,0.0269,0.2932,0.8546,-0.0441,-0.0574,-1.3456,0.2533,-0.1217,-0.0481,25.25703833,83.00800500,0.22184528,
4.0550,0.0269,0.2932,0.8546,-0.0441,-0.0574,-1.3456,0.2743,-0.1340,-0.0772,25.25703833,83.00800500,0.22184528,
4.0560,0.0269,0.2932,0.8546,0.1111,0.0688,-0.1456,0.2743,-0.1340,-0.0772,25.25703833,83.00800500,0.22184528,
4.1060,0.0990,0.3432,1.0537,0.1111,0.0688,-0.1456,0.2743,-0.1340,-0.0772,25.25703833,83.00800500,0.22184528,
4.1220,0.0990,0.3432,1.0537,0.1111,0.0688,-0.1456,0.0621,-0.3317,0.4364,25.25703833,83.00800500,0.22184528,
4.1250,0.0990,0.3432,1.0537,0.5627,0.3424,1.0060,0.0621,-0.3317,0.4364,25.25703833,83.00800500,0.22184528,
4.1720,0.1861,0.3762,1.0757,0.5627,0.3424,1.0060,0.0621,-0.3317,0.4364,25.25703833,83.00800500,0.22184528,
4.1900,0.1861,0.3762,1.0757,0.5627,0.3424,1.0060,0.1180,-0.5377,0.5106,25.25703833,83.00800500,0.22184528,
4.1920,0.1861,0.3762,1.0757,1.1581,0.7357,1.0827,0.1180,-0.5377,0.5106,25.25703833,83.00800500,0.22184528,
4.2390,0.2141,0.3092,1.0547,1.1581,0.7357,1.0827,0.1180,-0.5377,0.5106,25.25703833,83.00800500,0.22184528,
4.2540,0.2141,0.3092,1.0547,1.1581,0.7357,1.0827,-0.0910,-0.5366,0.6526,25.25703833,83.00800500,0.22184528,
4.2550,0.2141,0.3092,1.0547,0.2940,-0.4940,1.6787,-0.0910,-0.5366,0.6526,25.25703833,83.00800500,0.22184528,
4.3060,0.0230,0.2031,1.0517,0.2940,-0.4940,1.6787,-0.0910,-0.5366,0.6526,25.25703833,83.00800500,0.22184528,
4.3190,0.0230,0.2031,1.0517,0.2940,-0.4940,1.6787,-0.6284,0.2263,0.4669,25.25703833,83.00800500,0.22184528,
4.3230,0.0230,0.2031,1.0517,-1.1229,-0.6517,0.9598,-0.6284,0.2263,0.4669,25.25703833,83.00800500,0.22184528,
4.3710,-0.0600,0.2451,0.7505,-1.1229,-0.6517,0.9598,-0.6284,0.2263,0.4669,25.25703833,83.00800500,0.22184528,
4.3880,-0.0600,0.2451,0.7505,-1.1229,-0.6517,0.9598,-0.1902,0.9350,-0.9863,25.25703833,83.00800500,0.22184528,
4.3890,-0.0600,0.2451,0.7505,-1.1797,-0.0224,-2.1284,-0.1902,0.9350,-0.9863,25.25703833,83.00800500,0.22184528,
4.4370,0.0981,0.3082,0.7745,-1.1797,-0.0224,-2.1284,-0.1902,0.9350,-0.9863,25.25703833,83.00800500,0.22184528,
4.4510,0.0981,0.3082,0.7745,-1.1797,-0.0224,-2.1284,0.6539,-0.2685,-0.6520,25.25703833,83.00800500,0.22184528,
4.4520,0.0981,0.3082,0.7745,0.6365,0.2659,-1.3585,0.6539,-0.2685,-0.6520,25.25703833,83.00800500,0.22184528,
4.5030,0.0840,0.3182,0.9116,0.6365,0.2659,-1.3585,0.6539,-0.2685,-0.6520,25.25703833,83.00800500,0.22184528,
4.5190,0.0840,0.3182,0.9116,0.6365,0.2659,-1.3585,0.3721,-0.3132,-0.1748,25.25703833,83.00800500,0.22184528,
4.5210,0.0840,0.3182,0.9116,-0.3011,-0.0080,-0.0353,0.3721,-0.3132,-0.1748,25.25703833,83.00800500,0.22184528,
4.5690,-0.0319,0.3702,0.8576,-0.3011,-0.0080,-0.0353,0.3721,-0.3132,-0.1748,25.25703833,83.00800500,0.22184528,
4.6010,-0.0319,0.3702,0.8576,-0.3011,-0.0080,-0.0353,0.3946,0.2219,-0.9504,25.25703833,83.00800500,0.22184528,
4.6100,-0.0319,0.3702,0.8576,-0.6766,0.2884,-0.8085,0.3946,0.2219,-0.9504,25.25703833,83.00800500,0.22184528,
4.6370,-0.0259,0.4122,0.9076,-0.6766,0.2884,-0.8085,0.3946,0.2219,-0.9504,25.25703833,83.00800500,0.22184528,
4.6500,-0.0259,0.4122,0.9076,-0.6766,0.2884,-0.8085,0.5171,0.2056,-1.0323,25.25703833,83.00800500,0.22184528,
4.6520,-0.0259,0.4122,0.9076,-0.2381,0.3990,-0.2108,0.5171,0.2056,-1.0323,25.25703833,83.00800500,0.22184528,
4.7020,0.0209,0.4172,0.9777,-0.2381,0.3990,-0.2108,0.5171,0.2056,-1.0323,25.25703833,83.00800500,0.22184528,
4.7220,0.0209,0.4172,0.9777,-0.2381,0.3990,-0.2108,0.2215,-0.0854,-0.0590,25.25703833,83.00800500,0.22184528,
4.7320,0.0209,0.4172,0.9777,0.3907,0.4460,0.2806,0.2215,-0.0854,-0.0590,25.25703833,83.00800500,0.22184528,
4.7670,0.1131,0.4583,0.9587,0.3907,0.4460,0.2806,0.2215,-0.0854,-0.0590,25.25703833,83.00800500,0.22184528,
4.7820,0.1131,0.4583,0.9587,0.3907,0.4460,0.2806,0.4380,-0.3834,0.2849,25.25703833,83.00800500,0.22184528,
4.7840,0.1131,0.4583,0.9587,0.8823,0.4116,0.4808,0.4380,-0.3834,0.2849,25.25703833,83.00800500,0.22184528,
4.8330,-0.0300,0.2751,1.1578,0.8823,0.4116,0.4808,0.4380,-0.3834,0.2849,25.25703833,83.00800500,0.22184528,
4.8650,-0.0300,0.2751,1.1578,0.8823,0.4116,0.4808,-1.1094,0.4137,0.8683,25.25703833,83.00800500,0.22184528,
4.8730,-0.0300,0.2751,1.1578,-0.5966,-0.8112,2.1933,-1.1094,0.4137,0.8683,25.25703833,83.00800500,0.22184528,
4.9040,0.0319,0.3302,0.9766,-0.5966,-0.8112,2.1933,-1.1094,0.4137,0.8683,25.25703833,83.00800500,0.22184528,
4.9130,0.0319,0.3302,0.9766,-0.5966,-0.8112,2.1933,-0.3360,0.1472,0.2815,25.25703833,83.00800500,0.22184528,
4.9140,0.0319,0.3302,0.9766,-0.0120,-0.1374,0.2215,-0.3360,0.1472,0.2815,25.25703833,83.00800500,0.22184528,
4.9640,0.0660,0.2801,0.8336,-0.0120,-0.1374,0.2215,-0.3360,0.1472,0.2815,25.25703833,83.00800500,0.22184528,
4.9800,0.0660,0.2801,0.8336,-0.0120,-0.1374,0.2215,-0.0872,-0.1505,0.3851,25.25704333,83.00799000,0.34383443,
4.9820,0.0660,0.2801,0.8336,0.4663,-0.3640,-1.2498,-0.0872,-0.1505,0.3851,25.25704333,83.00799000,0.34383443,
5.0300,-0.0530,0.2311,0.8786,0.4663,-0.3640,-1.2498,-0.0872,-0.1505,0.3851,25.25704333,83.00799000,0.34383443,
5.0450,-0.0530,0.2311,0.8786,0.4663,-0.3640,-1.2498,-0.3075,0.2816,0.0446,25.25704333,83.00799000,0.34383443,
5.0460,-0.0530,0.2311,0.8786,-0.7976,-0.6801,-0.7393,-0.3075,0.2816,0.0446,25.25704333,83.00799000,0.34383443,
5.0980,0.0219,0.2621,0.8715,-0.7976,-0.6801,-0.7393,-0.3075,0.2816,0.0446,25.25704333,83.00799000,0.34383443,
5.1110,0.0219,0.2621,0.8715,-0.7976,-0.6801,-0.7393,-0.1583,0.1331,0.0354,25.25704333,83.00799000,0.34383443,
5.1120,0.0219,0.2621,0.8715,0.3257,-0.1004,-1.2091,-0.1583,0.1331,0.0354,25.25704333,83.00799000,0.34383443,
5.1620,0.0030,0.2692,0.9766,0.3257,-0.1004,-1.2091,-0.1583,0.1331,0.0354,25.25704333,83.00799000,0.34383443,
5.1920,0.0030,0.2692,0.9766,0.3257,-0.1004,-1.2091,-0.0891,0.0197,0.0528,25.25704333,83.00799000,0.34383443,
5.1950,0.0030,0.2692,0.9766,-0.0951,-0.0297,0.6747,-0.0891,0.0197,0.0528,25.25704333,83.00799000,0.34383443,
5.2290,0.1370,0.3242,1.0737,-0.0951,-0.0297,0.6747,-0.0891,0.0197,0.0528,25.25704333,83.00799000,0.34383443,
5.2440,0.1370,0.3242,1.0737,-0.0951,-0.0297,0.6747,-0.0038,-0.4101,0.5737,25.25704333,83.00799000,0.34383443,
5.2450,0.1370,0.3242,1.0737,0.9689,0.4776,1.1021,-0.0038,-0.4101,0.5737,25.25704333,83.00799000,0.34383443,
5.2970,0.1200,0.3622,1.1147,0.9689,0.4776,1.1021,-0.0038,-0.4101,0.5737,25.25704333,83.00799000,0.34383443,
5.3090,0.1200,0.3622,1.1147,0.9689,0.4776,1.1021,0.2132,-0.4142,0.2297,25.25704333,83.00799000,0.34383443,
5.3110,0.1200,0.3622,1.1147,0.4844,0.7347,1.5561,0.2132,-0.4142,0.2297,25.25704333,83.00799000,0.34383443,
5.3610,0.2221,0.3021,1.0077,0.4844,0.7347,1.5561,0.2132,-0.4142,0.2297,25.25704333,83.00799000,0.34383443,
5.3810,0.2221,0.3021,1.0077,0.4844,0.7347,1.5561,0.0844,-0.6309,0.6028,25.25704333,83.00799000,0.34383443,
5.3840,0.2221,0.3021,1.0077,1.0884,0.0424,0.1186,0.0844,-0.6309,0.6028,25.25704333,83.00799000,0.34383443,
5.4280,0.1410,0.2851,0.9837,1.0884,0.0424,0.1186,0.0844,-0.6309,0.6028,25.25704333,83.00799000,0.34383443,
5.4410,0.1410,0.2851,0.9837,1.0884,0.0424,0.1186,-0.1285,-0.0302,0.0817,25.25704333,83.00799000,0.34383443,
5.4420,0.1410,0.2851,0.9837,-0.8745,-0.2669,0.4679,-0.1285,-0.0302,0.0817,25.25704333,83.00799000,0.34383443,
5.4930,-0.0800,0.2751,0.8186,-0.8745,-0.2669,0.4679,-0.1285,-0.0302,0.0817,25.25704333,83.00799000,0.34383443,
5.5110,-0.0800,0.2751,0.8186,-0.8745,-0.2669,0.4679,-0.1290,0.9083,-1.0804,25.25704333,83.00799000,0.34383443,
5.5210,-0.0800,0.2751,0.8186,-1.5370,-0.0415,-1.3641,-0.1290,0.9083,-1.0804,25.25704333,83.00799000,0.34383443,
5.5590,-0.0500,0.2671,0.9316,-1.5370,-0.0415,-1.3641,-0.1290,0.9083,-1.0804,25.25704333,83.00799000,0.34383443,
5.5750,-0.0500,0.2671,0.9316,-1.5370,-0.0415,-1.3641,0.0731,0.6294,-1.0441,25.25704333,83.00799000,0.34383443,
5.5760,-0.0500,0.2671,0.9316,-0.1248,-0.0623,-0.8590,0.0731,0.6294,-1.0441,25.25704333,83.00799000,0.34383443,
5.6270,0.1181,0.3532,0.7695,-0.1248,-0.0623,-0.8590,0.0731,0.6294,-1.0441,25.25704333,83.00799000,0.34383443,
5.6400,0.1181,0.3532,0.7695,-0.1248,-0.0623,-0.8590,0.6771,-0.4551,-0.1741,25.25704333,83.00799000,0.34383443,
5.6440,0.1181,0.3532,0.7695,1.0178,0.4926,-1.8575,0.6771,-0.4551,-0.1741,25.25704333,83.00799000,0.34383443,
5.6910,0.0760,0.3862,0.7555,1.0178,0.4926,-1.8575,0.6771,-0.4551,-0.1741,25.25704333,83.00799000,0.34383443,
5.7060,0.0760,0.3862,0.7555,1.0178,0.4926,-1.8575,0.9610,-0.6427,-0.2466,25.25704333,83.00799000,0.34383443,
5.7100,0.0760,0.3862,0.7555,0.1991,-0.0394,-1.6089,0.9610,-0.6427,-0.2466,25.25704333,83.00799000,0.34383443,
5.7570,-0.0159,0.3722,0.9787,0.1991,-0.0394,-1.6089,0.9610,-0.6427,-0.2466,25.25704333,83.00799000,0.34383443,
5.7740,-0.0159,0.3722,0.9787,0.1991,-0.0394,-1.6089,-0.0417,0.1773,-0.2578,25.25704333,83.00799000,0.34383443,
5.7750,-0.0159,0.3722,0.9787,-0.6456,-0.2913,0.6242,-0.0417,0.1773,-0.2578,25.25704333,83.00799000,0.34383443,
5.8230,-0.0469,0.3752,1.0857,-0.6456,-0.2913,0.6242,-0.0417,0.1773,-0.2578,25.25704333,83.00799000,0.34383443,
5.8380,-0.0469,0.3752,1.0857,-0.6456,-0.2913,0.6242,-0.5575,0.5672,-0.2445,25.25704333,83.00799000,0.34383443,
5.8400,-0.0469,0.3752,1.0857,-0.5594,0.0546,1.5283,-0.5575,0.5672,-0.2445,25.25704333,83.00799000,0.34383443,
5.8900,0.0009,0.3952,1.0297,-0.5594,0.0546,1.5283,-0.5575,0.5672,-0.2445,25.25704333,83.00799000,0.34383443,
5.9030,0.0009,0.3952,1.0297,-0.5594,0.0546,1.5283,-0.1863,0.1073,0.0578,25.25704333,83.00799000,0.34383443,
5.9050,0.0009,0.3952,1.0297,0.0150,0.4239,0.9117,-0.1863,0.1073,0.0578,25.25704333,83.00799000,0.34383443,
5.9570,-0.0040,0.2671,1.2138,0.0150,0.4239,0.9117,-0.1863,0.1073,0.0578,25.25704333,83.00799000,0.34383443,
5.9760,-0.0040,0.2671,1.2138,0.0150,0.4239,0.9117,-0.5585,0.1958,0.5140,25.25704333,83.00799000,0.34383443,
5.9780,-0.0040,0.2671,1.2138,-0.0276,-0.6510,2.6498,-0.5585,0.1958,0.5140,25.25705000,83.00797667,0.39273307,
6.0210,0.0510,0.2291,0.8646,-0.0276,-0.6510,2.6498,-0.5585,0.1958,0.5140,25.25705000,83.00797667,0.39273307,
6.0350,0.0510,0.2291,0.8646,-0.0276,-0.6510,2.6498,-0.6096,0.0211,0.8987,25.25705000,83.00797667,0.39273307,
6.0360,0.0510,0.2291,0.8646,0.3788,-0.6041,-0.9095,-0.6096,0.0211,0.8987,25.25705000,83.00797667,0.39273307,
6.0860,-0.0450,0.1751,0.9456,0.3788,-0.6041,-0.9095,-0.6096,0.0211,0.8987,25.25705000,83.00797667,0.39273307,
6.1010,-0.0450,0.1751,0.9456,0.3788,-0.6041,-0.9095,-0.6611,0.3653,0.4474,25.25705000,83.00797667,0.39273307,
6.1020,-0.0450,0.1751,0.9456,-0.0015,-0.6473,-0.8111,-0.6611,0.3653,0.4474,25.25705000,83.00797667,0.39273307,
6.1520,0.0009,0.2451,0.8326,-0.0015,-0.6473,-0.8111,-0.6611,0.3653,0.4474,25.25705000,83.00797667,0.39273307,
6.1700,0.0009,0.2451,0.8326,-0.0015,-0.6473,-0.8111,0.0332,-0.1220,0.0763,25.25705000,83.00797667,0.39273307,
6.1720,0.0009,0.2451,0.8326,-0.0646,-0.0072,-1.3462,0.0332,-0.1220,0.0763,25.25705000,83.00797667,0.39273307,
6.2200,-0.0710,0.2571,0.8846,-0.0646,-0.0072,-1.3462,0.0332,-0.1220,0.0763,25.25705000,83.00797667,0.39273307,
6.2330,-0.0710,0.2571,0.8846,-0.0646,-0.0072,-1.3462,0.2041,0.3522,-0.7355,25.25705000,83.00797667,0.39273307,
6.2350,-0.0710,0.2571,0.8846,-0.3801,0.1870,-0.7268,0.2041,0.3522,-0.7355,25.25705000,83.00797667,0.39273307,
6.2870,-0.0610,0.3152,0.9177,-0.3801,0.1870,-0.7268,0.2041,0.3522,-0.7355,25.25705000,83.00797667,0.39273307,
6.2990,-0.0610,0.3152,0.9177,-0.3801,0.1870,-0.7268,0.4435,0.1459,-0.7625,25.25705000,83.00797667,0.39273307,
6.3010,-0.0610,0.3152,0.9177,-0.1213,0.3429,-0.4087,0.4435,0.1459,-0.7625,25.25705000,83.00797667,0.39273307,
6.3510,0.0760,0.3221,1.1407,-0.1213,0.3429,-0.4087,0.4435,0.1459,-0.7625,25.25705000,83.00797667,0.39273307,
6.3690,0.0760,0.3221,1.1407,-0.1213,0.3429,-0.4087,0.0194,-0.3239,0.4246,25.25705000,83.00797667,0.39273307,
6.3710,0.0760,0.3221,1.1407,1.0254,0.3313,1.7929,0.0194,-0.3239,0.4246,25.25705000,83.00797667,0.39273307,
6.4180,0.0850,0.3092,1.1388,1.0254,0.3313,1.7929,0.0194,-0.3239,0.4246,25.25705000,83.00797667,0.39273307,
6.4310,0.0850,0.3092,1.1388,1.0254,0.3313,1.7929,-0.0289,-0.5620,0.7615,25.25705000,83.00797667,0.39273307,
6.4320,0.0850,0.3092,1.1388,0.5349,0.2010,1.7754,-0.0289,-0.5620,0.7615,25.25705000,83.00797667,0.39273307,
6.4830,0.0981,0.2692,1.0567,0.5349,0.2010,1.7754,-0.0289,-0.5620,0.7615,25.25705000,83.00797667,0.39273307,
6.4980,0.0981,0.2692,1.0567,0.5349,0.2010,1.7754,-0.2706,-0.2198,0.6134,25.25705000,83.00797667,0.39273307,
6.5010,0.0981,0.2692,1.0567,0.4310,0.0026,0.9256,-0.2706,-0.2198,0.6134,25.25705000,83.00797667,0.39273307,
6.5500,0.0850,0.2081,1.1288,0.4310,0.0026,0.9256,-0.2706,-0.2198,0.6134,25.25705000,83.00797667,0.39273307,
6.5670,0.0850,0.2081,1.1288,0.4310,0.0026,0.9256,-0.4868,-0.0568,0.6869,25.25705000,83.00797667,0.39273307,
6.5710,0.0850,0.2081,1.1288,-0.1635,-0.4879,0.6423,-0.4868,-0.0568,0.6869,25.25705000,83.00797667,0.39273307,
6.6150,0.0009,0.1981,0.7705,-0.1635,-0.4879,0.6423,-0.4868,-0.0568,0.6869,25.25705000,83.00797667,0.39273307,
6.6300,0.0009,0.1981,0.7705,-0.1635,-0.4879,0.6423,-0.2533,0.2418,0.0486,25.25705000,83.00797667,0.39273307,
6.6310,0.0009,0.1981,0.7705,-0.6623,-0.1719,-2.0012,-0.2533,0.2418,0.0486,25.25705000,83.00797667,0.39273307,
6.6800,0.0290,0.2661,0.7615,-0.6623,-0.1719,-2.0012,-0.2533,0.2418,0.0486,25.25705000,83.00797667,0.39273307,
6.6960,0.0290,0.2661,0.7615,-0.6623,-0.1719,-2.0012,0.4889,0.1192,-0.8186,25.25705000,83.00797667,0.39273307,
6.7000,0.0290,0.2661,0.7615,-0.1269,0.2114,-2.0368,0.4889,0.1192,-0.8186,25.25705000,83.00797667,0.39273307,
6.7480,0.1110,0.3182,0.8726,-0.1269,0.2114,-2.0368,0.4889,0.1192,-0.8186,25.25705000,83.00797667,0.39273307,
6.7640,0.1110,0.3182,0.8726,-0.1269,0.2114,-2.0368,0.6752,-0.4690,-0.3590,25.25705000,83.00797667,0.39273307,
6.7660,0.1110,0.3182,0.8726,0.4072,0.3648,-1.0239,0.6752,-0.4690,-0.3590,25.25705000,83.00797667,0.39273307,
6.8120,-0.0569,0.4022,0.8555,0.4072,0.3648,-1.0239,0.6752,-0.4690,-0.3590,25.25705000,83.00797667,0.39273307,
6.8280,-0.0569,0.4022,0.8555,0.4072,0.3648,-1.0239,0.8026,-0.0261,-1.1418,25.25705000,83.00797667,0.39273307,
6.8290,-0.0569,0.4022,0.8555,-1.0533,0.6063,-0.8240,0.8026,-0.0261,-1.1418,25.25705000,83.00797667,0.39273307,
6.8800,0.0059,0.4743,0.9296,-1.0533,0.6063,-0.8240,0.8026,-0.0261,-1.1418,25.25705000,83.00797667,0.39273307,
6.8930,0.0059,0.4743,0.9296,-1.0533,0.6063,-0.8240,0.7841,-0.0062,-1.0715,25.25705000,83.00797667,0.39273307,
6.8950,0.0059,0.4743,0.9296,-0.0566,0.7491,0.8879,0.7841,-0.0062,-1.0715,25.25705000,83.00797667,0.39273307,
6.9450,-0.0180,0.4813,1.0728,-0.0566,0.7491,0.8879,0.7841,-0.0062,-1.0715,25.25705000,83.00797667,0.39273307,
6.9610,-0.0180,0.4813,1.0728,-0.0566,0.7491,0.8879,0.1547,0.0443,-0.3399,25.25705000,83.00797667,0.39273307,
6.9620,-0.0180,0.4813,1.0728,-0.1890,0.5170,1.5185,0.1547,0.0443,-0.3399,25.25705000,83.00797667,0.39273307,
7.0110,0.0350,0.4272,1.1407,-0.1890,0.5170,1.5185,0.1547,0.0443,-0.3399,25.25705000,83.00797667,0.39273307,
7.0250,0.0350,0.4272,1.1407,-0.1890,0.5170,1.5185,-0.2928,0.0576,0.2184,25.25705000,83.00797667,0.39273307,
7.0270,0.0350,0.4272,1.1407,-0.1799,0.2920,1.3104,-0.2928,0.0576,0.2184,25.25705000,83.00797667,0.39273307,
7.0760,-0.0040,0.2902,1.2729,-0.1799,0.2920,1.3104,-0.2928,0.0576,0.2184,25.25705000,83.00797667,0.39273307,
7.0910,-0.0040,0.2902,1.2729,-0.1799,0.2920,1.3104,-0.4258,0.2145,0.1760,25.25705000,83.00797667,0.39273307,
7.0920,-0.0040,0.2902,1.2729,0.0200,-0.9250,3.4213,-0.4258,0.2145,0.1760,25.25705000,83.00797667,0.39273307,
7.1420,-0.0140,0.2291,0.8846,0.0200,-0.9250,3.4213,-0.4258,0.2145,0.1760,25.25705000,83.00797667,0.39273307,
7.1710,-0.0140,0.2291,0.8846,0.0200,-0.9250,3.4213,-1.0756,0.2974,0.9286,25.25705000,83.00797667,0.39273307,
7.1730,-0.0140,0.2291,0.8846,-0.2862,-0.5471,-1.4065,-1.0756,0.2974,0.9286,25.25705000,83.00797667,0.39273307,
7.2090,0.0440,0.1851,0.8736,-0.2862,-0.5471,-1.4065,-1.0756,0.2974,0.9286,25.25705000,83.00797667,0.39273307,
7.2240,0.0440,0.1851,0.8736,-0.2862,-0.5471,-1.4065,-0.5862,-0.0050,0.7762,25.25705000,83.00797667,0.39273307,
7.2250,0.0440,0.1851,0.8736,1.0512,-0.8951,-0.5587,-0.5862,-0.0050,0.7762,25.25705000,83.00797667,0.39273307,
7.2750,0.0380,0.2251,0.6204,1.0512,-0.8951,-0.5587,-0.5862,-0.0050,0.7762,25.25705000,83.00797667,0.39273307,
7.2900,0.0380,0.2251,0.6204,1.0512,-0.8951,-0.5587,-0.1499,-0.3040,0.6513,25.25705000,83.00797667,0.39273307,
7.2930,0.0380,0.2251,0.6204,0.0266,-0.1807,-3.4252,-0.1499,-0.3040,0.6513,25.25705000,83.00797667,0.39273307,
7.3410,-0.0440,0.3312,0.8415,0.0266,-0.1807,-3.4252,-0.1499,-0.3040,0.6513,25.25705000,83.00797667,0.39273307,
7.3710,-0.0440,0.3312,0.8415,0.0266,-0.1807,-3.4252,0.7743,-0.0828,-0.9199,25.25705000,83.00797667,0.39273307,
7.3800,-0.0440,0.3312,0.8415,-0.7991,0.3565,-1.1170,0.7743,-0.0828,-0.9199,25.25705000,83.00797667,0.39273307,
7.4100,-0.1751,0.3722,1.0337,-0.7991,0.3565,-1.1170,0.7743,-0.0828,-0.9199,25.25705000,83.00797667,0.39273307,
7.4210,-0.1751,0.3722,1.0337,-0.7991,0.3565,-1.1170,0.3983,0.7070,-1.7433,25.25705000,83.00797667,0.39273307,
7.4220,-0.1751,0.3722,1.0337,-1.0566,0.2100,1.5926,0.3983,0.7070,-1.7433,25.25705000,83.00797667,0.39273307,
7.4720,-0.0690,0.3502,1.1738,-1.0566,0.2100,1.5926,0.3983,0.7070,-1.7433,25.25705000,83.00797667,0.39273307,
7.4900,-0.0690,0.3502,1.1738,-1.0566,0.2100,1.5926,-0.2332,0.1968,-0.3327,25.25705000,83.00797667,0.39273307,
7.4930,-0.0690,0.3502,1.1738,0.4900,0.4334,2.1305,-0.2332,0.1968,-0.3327,25.25705000,83.00797667,0.39273307,
7.5390,-0.0900,0.3111,1.0747,0.4900,0.4334,2.1305,-0.2332,0.1968,-0.3327,25.25705000,83.00797667,0.39273307,
7.5550,-0.0900,0.3111,1.0747,0.4900,0.4334,2.1305,-0.1904,-0.0363,-0.0673,25.25705000,83.00797667,0.39273307,
7.5560,-0.0900,0.3111,1.0747,-0.2179,0.0781,1.2105,-0.1904,-0.0363,-0.0673,25.25705000,83.00797667,0.39273307,
7.6040,0.1220,0.3252,0.9856,-0.2179,0.0781,1.2105,-0.1904,-0.0363,-0.0673,25.25705000,83.00797667,0.39273307,
7.6190,0.1220,0.3252,0.9856,-0.2179,0.0781,1.2105,-0.0611,-0.6991,0.8353,25.25705000,83.00797667,0.39273307,
7.6200,0.1220,0.3252,0.9856,1.6720,0.1495,0.8165,-0.0611,-0.6991,0.8353,25.25705000,83.00797667,0.39273307,
7.6710,0.0690,0.2051,1.2518,1.6720,0.1495,0.8165,-0.0611,-0.6991,0.8353,25.25705000,83.00797667,0.39273307,
7.6860,0.0690,0.2051,1.2518,1.6720,0.1495,0.8165,-0.7538,-0.3634,1.1453,25.25705000,83.00797667,0.39273307,
7.6890,0.0690,0.2051,1.2518,-0.5087,-0.8062,2.4547,-0.7538,-0.3634,1.1453,25.25705000,83.00797667,0.39273307,
7.7380,0.0000,0.2111,0.8045,-0.5087,-0.8062,2.4547,-0.7538,-0.3634,1.1453,25.25705000,83.00797667,0.39273307,
7.7540,0.0000,0.2111,0.8045,-0.5087,-0.8062,2.4547,-0.4177,0.1447,0.0521,25.25705000,83.00797667,0.39273307,
7.7560,0.0000,0.2111,0.8045,-0.1948,-0.0520,-1.6880,-0.4177,0.1447,0.0521,25.25705000,83.00797667,0.39273307,
7.8030,0.0259,0.2801,0.7524,-0.1948,-0.0520,-1.6880,-0.4177,0.1447,0.0521,25.25705000,83.00797667,0.39273307,
7.8180,0.0259,0.2801,0.7524,-0.1948,-0.0520,-1.6880,0.5574,-0.0441,-0.8783,25.25705000,83.00797667,0.39273307,
7.8200,0.0259,0.2801,0.7524,0.1897,0.3287,-2.1294,0.5574,-0.0441,-0.8783,25.25705000,83.00797667,0.39273307,
7.8710,0.1131,0.3402,0.8386,0.1897,0.3287,-2.1294,0.5574,-0.0441,-0.8783,25.25705000,83.00797667,0.39273307,
7.8830,0.1131,0.3402,0.8386,0.1897,0.3287,-2.1294,0.8383,-0.6737,-0.2662,25.25705000,83.00797667,0.39273307,
7.8860,0.1131,0.3402,0.8386,0.1274,0.3877,-1.0124,0.8383,-0.6737,-0.2662,25.25705000,83.00797667,0.39273307,
7.9460,-0.0690,0.3702,0.8365,0.1274,0.3877,-1.0124,0.8383,-0.6737,-0.2662,25.25705000,83.00797667,0.39273307,
7.9640,-0.0690,0.3702,0.8365,0.1274,0.3877,-1.0124,0.6931,0.0052,-1.0796,25.25705000,83.00797667,0.39273307,
7.9660,-0.0690,0.3702,0.8365,-0.9552,0.1660,-0.9726,0.6931,0.0052,-1.0796,25.25705000,83.00797667,0.39273307,
8.0000,0.0000,0.4272,0.8746,-0.9552,0.1660,-0.9726,0.6931,0.0052,-1.0796,25.25705000,83.00797667,0.39273307,
8.0150,0.0000,0.4272,0.8746,-0.9552,0.1660,-0.9726,0.6032,0.0487,-0.9215,25.25705333,83.00795667,0.56310612,
8.0170,0.0000,0.4272,0.8746,0.0365,0.4003,-0.4745,0.6032,0.0487,-0.9215,25.25705333,83.00795667,0.56310612,
8.0660,-0.0460,0.3842,1.0567,0.0365,0.4003,-0.4745,0.6032,0.0487,-0.9215,25.25705333,83.00795667,0.56310612,
8.0810,-0.0460,0.3842,1.0567,0.0365,0.4003,-0.4745,-0.1769,0.1635,-0.1227,25.25705333,83.00795667,0.56310612,
8.0820,-0.0460,0.3842,1.0567,0.3671,-0.0272,0.7276,-0.1769,0.1635,-0.1227,25.25705333,83.00795667,0.56310612,
8.1320,0.0550,0.4102,0.9006,0.3671,-0.0272,0.7276,-0.1769,0.1635,-0.1227,25.25705333,83.00795667,0.56310612,
8.1590,0.0550,0.4102,0.9006,0.3671,-0.0272,0.7276,0.0553,-0.1856,0.6592,25.25705333,83.00795667,0.56310612,
8.1620,0.0550,0.4102,0.9006,0.8787,0.2559,0.4623,0.0553,-0.1856,0.6592,25.25705333,83.00795667,0.56310612,
8.1990,-0.0190,0.2471,1.2138,0.8787,0.2559,0.4623,0.0553,-0.1856,0.6592,25.25705333,83.00795667,0.56310612,
8.2140,-0.0190,0.2471,1.2138,0.8787,0.2559,0.4623,-1.0808,0.3418,1.5191,25.25705333,83.00795667,0.56310612,
8.2150,-0.0190,0.2471,1.2138,-0.5424,-0.8006,2.6403,-1.0808,0.3418,1.5191,25.25705333,83.00795667,0.56310612,
8.2650,-0.0250,0.2821,1.0016,-0.5424,-0.8006,2.6403,-1.0808,0.3418,1.5191,25.25705333,83.00795667,0.56310612,
8.2800,-0.0250,0.2821,1.0016,-0.5424,-0.8006,2.6403,-0.4849,0.4716,0.5476,25.25705333,83.00795667,0.56310612,
8.2820,-0.0250,0.2821,1.0016,0.0087,-0.2756,0.8556,-0.4849,0.4716,0.5476,25.25705333,83.00795667,0.56310612,
8.3300,0.0700,0.2692,0.8646,0.0087,-0.2756,0.8556,-0.4849,0.4716,0.5476,25.25705333,83.00795667,0.56310612,
8.3470,0.0700,0.2692,0.8646,0.0087,-0.2756,0.8556,-0.0816,-0.0080,0.8274,25.25705333,83.00795667,0.56310612,
8.3490,0.0700,0.2692,0.8646,0.8801,0.0272,-2.1187,-0.0816,-0.0080,0.8274,25.25705333,83.00795667,0.56310612,
8.3980,-0.0050,0.2732,0.8696,0.8801,0.0272,-2.1187,-0.0816,-0.0080,0.8274,25.25705333,83.00795667,0.56310612,
8.4150,-0.0050,0.2732,0.8696,0.8801,0.0272,-2.1187,0.4091,-0.2165,0.2703,25.25705333,83.00795667,0.56310612,
8.4270,-0.0050,0.2732,0.8696,-0.5302,-0.2753,-0.8165,0.4091,-0.2165,0.2703,25.25705333,83.00795667,0.56310612,
8.4630,-0.0209,0.2861,0.7935,-0.5302,-0.2753,-0.8165,0.4091,-0.2165,0.2703,25.25705333,83.00795667,0.56310612,
8.4770,-0.0209,0.2861,0.7935,-0.5302,-0.2753,-0.8165,0.1417,0.3586,-0.2267,25.25705333,83.00795667,0.56310612,
8.4800,-0.0209,0.2861,0.7935,-0.4043,-0.2079,-1.5538,0.1417,0.3586,-0.2267,25.25705333,83.00795667,0.56310612,
8.5300,0.1131,0.2842,1.0697,-0.4043,-0.2079,-1.5538,0.1417,0.3586,-0.2267,25.25705333,83.00795667,0.56310612,
8.5600,0.1131,0.2842,1.0697,-0.4043,-0.2079,-1.5538,-0.0539,-0.0838,0.7467,25.25705333,83.00795667,0.56310612,
8.5630,0.1131,0.2842,1.0697,0.6460,-0.3370,1.9102,-0.0539,-0.0838,0.7467,25.25705333,83.00795667,0.56310612,
8.5960,0.1381,0.2632,1.0687,0.6460,-0.3370,1.9102,-0.0539,-0.0838,0.7467,25.25705333,83.00795667,0.56310612,
8.6100,0.1381,0.2632,1.0687,0.6460,-0.3370,1.9102,-0.4293,-0.1955,1.4103,25.25705333,83.00795667,0.56310612,
8.6110,0.1381,0.2632,1.0687,0.6286,-0.0821,0.9740,-0.4293,-0.1955,1.4103,25.25705333,83.00795667,0.56310612,
8.6610,0.0730,0.3042,0.9537,0.6286,-0.0821,0.9740,-0.4293,-0.1955,1.4103,25.25705333,83.00795667,0.56310612,
8.6770,0.0730,0.3042,0.9537,0.6286,-0.0821,0.9740,0.0492,-0.0590,0.2614,25.25705333,83.00795667,0.56310612,
8.6810,0.0730,0.3042,0.9537,-0.1825,0.3848,-0.0676,0.0492,-0.0590,0.2614,25.25705333,83.00795667,0.56310612,
8.7280,0.2001,0.3371,1.0767,-0.1825,0.3848,-0.0676,0.0492,-0.0590,0.2614,25.25705333,83.00795667,0.56310612,
8.7430,0.2001,0.3371,1.0767,-0.1825,0.3848,-0.0676,0.2356,-0.4279,0.1309,25.25705333,83.00795667,0.56310612,
8.7450,0.2001,0.3371,1.0767,0.7255,0.0232,1.6736,0.2356,-0.4279,0.1309,25.25705333,83.00795667,0.56310612,
8.7940,0.0610,0.2482,1.0237,0.7255,0.0232,1.6736,0.2356,-0.4279,0.1309,25.25705333,83.00795667,0.56310612,
8.8100,0.0610,0.2482,1.0237,0.7255,0.0232,1.6736,-0.2753,0.1577,0.0899,25.25705333,83.00795667,0.56310612,
8.8120,0.0610,0.2482,1.0237,-0.5935,-0.2021,0.6360,-0.2753,0.1577,0.0899,25.25705333,83.00795667,0.56310612,
8.8590,-0.0090,0.2842,0.7164,-0.5935,-0.2021,0.6360,-0.2753,0.1577,0.0899,25.25705333,83.00795667,0.56310612,
8.8730,-0.0090,0.2842,0.7164,-0.5935,-0.2021,0.6360,0.1486,0.2774,-0.7301,25.25705333,83.00795667,0.56310612,
8.8740,-0.0090,0.2842,0.7164,-0.9367,0.0930,-2.3699,0.1486,0.2774,-0.7301,25.25705333,83.00795667,0.56310612,
8.9480,0.0300,0.3142,0.8926,-0.9367,0.0930,-2.3699,0.1486,0.2774,-0.7301,25.25705333,83.00795667,0.56310612,
8.9500,0.0300,0.3142,0.8926,-0.9367,0.0930,-2.3699,0.4393,0.2345,-1.1477,25.25705333,83.00795667,0.56310612,
8.9530,0.0300,0.3142,0.8926,0.1452,0.0029,-0.8602,0.4393,0.2345,-1.1477,25.25705333,83.00795667,0.56310612,
8.9900,0.0510,0.3312,0.8706,0.1452,0.0029,-0.8602,0.4393,0.2345,-1.1477,25.25705333,83.00795667,0.56310612,
9.0050,0.0510,0.3312,0.8706,0.1452,0.0029,-0.8602,0.3275,-0.1007,-0.4581,25.25705667,83.00794667,0.65009415,
9.0060,0.0510,0.3312,0.8706,-0.2043,0.0169,-0.4187,0.3275,-0.1007,-0.4581,25.25705667,83.00794667,0.65009415,
9.0560,0.0000,0.3622,0.8286,-0.2043,0.0169,-0.4187,0.3275,-0.1007,-0.4581,25.25705667,83.00794667,0.65009415,
9.0710,0.0000,0.3622,0.8286,-0.2043,0.0169,-0.4187,0.4681,0.0364,-0.8189,25.25705667,83.00794667,0.65009415,
9.0720,0.0000,0.3622,0.8286,-0.4341,0.1943,-1.1526,0.4681,0.0364,-0.8189,25.25705667,83.00794667,0.65009415,
9.1230,0.0440,0.3992,0.9206,-0.4341,0.1943,-1.1526,0.4681,0.0364,-0.8189,25.25705667,83.00794667,0.65009415,
9.1500,0.0440,0.3992,0.9206,-0.4341,0.1943,-1.1526,0.3788,-0.0422,-0.4550,25.25705667,83.00794667,0.65009415,
9.1520,0.0440,0.3992,0.9206,0.5860,0.1910,0.6949,0.3788,-0.0422,-0.4550,25.25705667,83.00794667,0.65009415,
9.1900,0.1181,0.4062,0.9747,0.5860,0.1910,0.6949,0.3788,-0.0422,-0.4550,25.25705667,83.00794667,0.65009415,
9.2040,0.1181,0.4062,0.9747,0.5860,0.1910,0.6949,0.0310,-0.3652,0.6408,25.25705667,83.00794667,0.65009415,
9.2050,0.1181,0.4062,0.9747,0.9571,0.0779,0.5997,0.0310,-0.3652,0.6408,25.25705667,83.00794667,0.65009415,
9.2550,0.0440,0.3892,0.9086,0.9571,0.0779,0.5997,0.0310,-0.3652,0.6408,25.25705667,83.00794667,0.65009415,
9.2700,0.0440,0.3892,0.9086,0.9571,0.0779,0.5997,-0.1730,0.1203,0.1815,25.25705667,83.00794667,0.65009415,
9.2720,0.0440,0.3892,0.9086,-0.6799,0.0573,1.9252,-0.1730,0.1203,0.1815,25.25705667,83.00794667,0.65009415,
9.3210,-0.0190,0.2511,1.4159,-0.6799,0.0573,1.9252,-0.1730,0.1203,0.1815,25.25705667,83.00794667,0.65009415,
9.3580,-0.0190,0.2511,1.4159,-0.6799,0.0573,1.9252,-1.4210,0.8418,0.8038,25.25705667,83.00794667,0.65009415,
9.3620,-0.0190,0.2511,1.4159,-0.4733,-0.4725,4.5234,-1.4210,0.8418,0.8038,25.25705667,83.00794667,0.65009415,
9.3890,-0.0330,0.3052,0.9527,-0.4733,-0.4725,4.5234,-1.4210,0.8418,0.8038,25.25705667,83.00794667,0.65009415,
9.4010,-0.0330,0.3052,0.9527,-0.4733,-0.4725,4.5234,-0.2097,0.2875,-0.0793,25.25705667,83.00794667,0.65009415,
9.4020,-0.0330,0.3052,0.9527,-0.6740,0.2603,-0.6681,-0.2097,0.2875,-0.0793,25.25705667,83.00794667,0.65009415,
9.4530,0.0820,0.3002,0.8365,-0.6740,0.2603,-0.6681,-0.2097,0.2875,-0.0793,25.25705667,83.00794667,0.65009415,
9.4810,0.0820,0.3002,0.8365,-0.6740,0.2603,-0.6681,0.3110,-0.2039,-0.0806,25.25705667,83.00794667,0.65009415,
9.4830,0.0820,0.3002,0.8365,0.9620,0.1375,-1.2954,0.3110,-0.2039,-0.0806,25.25705667,83.00794667,0.65009415,
9.5200,-0.0500,0.2942,0.8486,0.9620,0.1375,-1.2954,0.3110,-0.2039,-0.0806,25.25705667,83.00794667,0.65009415,
9.5360,-0.0500,0.2942,0.8486,0.9620,0.1375,-1.2954,0.2975,-0.0064,-0.3033,25.25705667,83.00794667,0.65009415,
9.5390,-0.0500,0.2942,0.8486,-0.7441,-0.1510,-1.0055,0.2975,-0.0064,-0.3033,25.25705667,83.00794667,0.65009415,
9.5860,-0.0530,0.3111,0.7945,-0.7441,-0.1510,-1.0055,0.2975,-0.0064,-0.3033,25.25705667,83.00794667,0.65009415,
9.6000,-0.0530,0.3111,0.7945,-0.7441,-0.1510,-1.0055,0.3667,0.2902,-0.8069,25.25705667,83.00794667,0.65009415,
9.6020,-0.0530,0.3111,0.7945,-0.3712,0.1110,-1.3295,0.3667,0.2902,-0.8069,25.25705667,83.00794667,0.65009415,
9.6510,0.0580,0.3002,0.9346,-0.3712,0.1110,-1.3295,0.3667,0.2902,-0.8069,25.25705667,83.00794667,0.65009415,
9.6650,0.0580,0.3002,0.9346,-0.3712,0.1110,-1.3295,-0.0438,-0.1441,0.4045,25.25705667,83.00794667,0.65009415,
9.6690,0.0580,0.3002,0.9346,0.8312,-0.5310,0.6661,-0.0438,-0.1441,0.4045,25.25705667,83.00794667,0.65009415,
9.7180,0.1370,0.2551,1.0307,0.8312,-0.5310,0.6661,-0.0438,-0.1441,0.4045,25.25705667,83.00794667,0.65009415,
9.7340,0.1370,0.2551,1.0307,0.8312,-0.5310,0.6661,-0.5090,-0.4412,1.4145,25.25705667,83.00794667,0.65009415,
9.7360,0.1370,0.2551,1.0307,0.8841,-0.3059,0.2154,-0.5090,-0.4412,1.4145,25.25705667,83.00794667,0.65009415,
9.7830,0.0009,0.2861,1.0377,0.8841,-0.3059,0.2154,-0.5090,-0.4412,1.4145,25.25705667,83.00794667,0.65009415,
9.7980,0.0009,0.2861,1.0377,0.8841,-0.3059,0.2154,-0.2922,0.1495,0.2346,25.25705667,83.00794667,0.65009415,
9.8020,0.0009,0.2861,1.0377,-0.5731,0.0944,0.7625,-0.2922,0.1495,0.2346,25.25705667,83.00794667,0.65009415,
9.8510,0.1331,0.3271,0.9816,-0.5731,0.0944,0.7625,-0.2922,0.1495,0.2346,25.25705667,83.00794667,0.65009415,
9.8740,0.1331,0.3271,0.9816,-0.5731,0.0944,0.7625,0.2112,-0.2316,-0.2125,25.25705667,83.00794667,0.65009415,
9.8760,0.1331,0.3271,0.9816,0.7087,0.3853,0.2471,0.2112,-0.2316,-0.2125,25.25705667,83.00794667,0.65009415,
9.9150,0.0750,0.2751,1.0997,0.7087,0.3853,0.2471,0.2112,-0.2316,-0.2125,25.25705667,83.00794667,0.65009415,
9.9350,0.0750,0.2751,1.0997,0.7087,0.3853,0.2471,-0.1841,-0.0994,0.1384,25.25705667,83.00794667,0.65009415,
9.9380,0.0750,0.2751,1.0997,-0.6619,-0.1482,0.8764,-0.1841,-0.0994,0.1384,25.25705667,83.00794667,0.65009415,
9.9800,-0.0550,0.3032,0.8886,-0.6619,-0.1482,0.8764,-0.1841,-0.0994,0.1384,25.25705667,83.00794667,0.65009415,
9.9950,-0.0550,0.3032,0.8886,-0.6619,-0.1482,0.8764,0.0496,0.4885,-0.8334,25.25707000,83.00792667,0.75046498,
9.9980,-0.0550,0.3032,0.8886,-0.9484,0.2144,-0.6937,0.0496,0.4885,-0.8334,25.25707000,83.00792667,0.75046498,
10.0460,0.0519,0.3332,0.9136,-0.9484,0.2144,-0.6937,0.0496,0.4885,-0.8334,25.25707000,83.00792667,0.75046498,
10.0610,0.0519,0.3332,0.9136,-0.9484,0.2144,-0.6937,0.3217,0.0518,-0.6433,25.25707000,83.00792667,0.75046498,
10.0620,0.0519,0.3332,0.9136,0.4186,0.2956,-0.3921,0.3217,0.0518,-0.6433,25.25707000,83.00792667,0.75046498,
10.1130,0.0981,0.3812,0.7995,0.4186,0.2956,-0.3921,0.3217,0.0518,-0.6433,25.25707000,83.00792667,0.75046498,
10.1390,0.0981,0.3812,0.7995,0.4186,0.2956,-0.3921,0.6663,-0.6480,-0.0523,25.25707000,83.00792667,0.75046498,
10.1420,0.0981,0.3812,0.7995,0.4921,0.2239,-1.6059,0.6663,-0.6480,-0.0523,25.25707000,83.00792667,0.75046498,
10.1800,0.0760,0.3662,0.8186,0.4921,0.2239,-1.6059,0.6663,-0.6480,-0.0523,25.25707000,83.00792667,0.75046498,
10.1940,0.0760,0.3662,0.8186,0.4921,0.2239,-1.6059,0.5314,-0.3910,-0.1418,25.25707000,83.00792667,0.75046498,
10.1960,0.0760,0.3662,0.8186,-0.3420,-0.1078,-1.1890,0.5314,-0.3910,-0.1418,25.25707000,83.00792667,0.75046498,
10.2460,-0.1070,0.3983,0.8786,-0.3420,-0.1078,-1.1890,0.5314,-0.3910,-0.1418,25.25707000,83.00792667,0.75046498,
10.2600,-0.1070,0.3983,0.8786,-0.3420,-0.1078,-1.1890,0.2451,0.5322,-1.2555,25.25707000,83.00792667,0.75046498,
10.2620,-0.1070,0.3983,0.8786,-1.2720,-0.0318,-0.3694,0.2451,0.5322,-1.2555,25.25707000,83.00792667,0.75046498,
10.3110,-0.0790,0.4283,0.9827,-1.2720,-0.0318,-0.3694,0.2451,0.5322,-1.2555,25.25707000,83.00792667,0.75046498,
10.3390,-0.0790,0.4283,0.9827,-1.2720,-0.0318,-0.3694,0.1228,0.5443,-1.1441,25.25707000,83.00792667,0.75046498,
10.3470,-0.0790,0.4283,0.9827,-0.3362,0.1813,0.6946,0.1228,0.5443,-1.1441,25.25707000,83.00792667,0.75046498,
10.3770,0.1620,0.4622,1.0227,-0.3362,0.1813,0.6946,0.1228,0.5443,-1.1441,25.25707000,83.00792667,0.75046498,
10.3910,0.1620,0.4622,1.0227,-0.3362,0.1813,0.6946,-0.0363,-0.4532,0.9140,25.25707000,83.00792667,0.75046498,
10.3920,0.1620,0.4622,1.0227,0.8992,0.7604,0.6752,-0.0363,-0.4532,0.9140,25.25707000,83.00792667,0.75046498,
10.4430,0.0269,0.3052,1.2258,0.8992,0.7604,0.6752,-0.0363,-0.4532,0.9140,25.25707000,83.00792667,0.75046498,
10.4610,0.0269,0.3052,1.2258,0.8992,0.7604,0.6752,-0.7938,0.1666,0.9533,25.25707000,83.00792667,0.75046498,
10.4720,0.0269,0.3052,1.2258,0.0345,-0.5710,2.8795,-0.7938,0.1666,0.9533,25.25707000,83.00792667,0.75046498,
10.5090,0.0269,0.3432,0.8296,0.0345,-0.5710,2.8795,-0.7938,0.1666,0.9533,25.25707000,83.00792667,0.75046498,
10.5250,0.0269,0.3432,0.8296,0.0345,-0.5710,2.8795,-0.1163,0.0182,0.3008,25.25707000,83.00792667,0.75046498,
10.5270,0.0269,0.3432,0.8296,-0.0392,0.0258,-1.0855,-0.1163,0.0182,0.3008,25.25707000,83.00792667,0.75046498,
10.5760,-0.0130,0.2782,0.9987,-0.0392,0.0258,-1.0855,-0.1163,0.0182,0.3008,25.25707000,83.00792667,0.75046498,
10.5900,-0.0130,0.2782,0.9987,-0.0392,0.0258,-1.0855,-0.3175,0.3228,0.1189,25.25707000,83.00792667,0.75046498,
10.5930,-0.0130,0.2782,0.9987,-0.2757,-0.5035,0.5290,-0.3175,0.3228,0.1189,25.25707000,83.00792667,0.75046498,
10.6410,0.1050,0.2882,0.7845,-0.2757,-0.5035,0.5290,-0.3175,0.3228,0.1189,25.25707000,83.00792667,0.75046498,
10.6560,0.1050,0.2882,0.7845,-0.2757,-0.5035,0.5290,-0.0121,-0.2657,0.5793,25.25707000,83.00792667,0.75046498,
10.6600,0.1050,0.2882,0.7845,-0.1081,-0.3946,-1.2262,-0.0121,-0.2657,0.5793,25.25707000,83.00792667,0.75046498,
10.7070,0.0469,0.2682,0.8496,-0.1081,-0.3946,-1.2262,-0.0121,-0.2657,0.5793,25.25707000,83.00792667,0.75046498,
10.7230,0.0469,0.2682,0.8496,-0.1081,-0.3946,-1.2262,-0.2525,0.1960,0.3586,25.25707000,83.00792667,0.75046498,
10.7240,0.0469,0.2682,0.8496,0.1149,-0.3561,-1.0086,-0.2525,0.1960,0.3586,25.25707000,83.00792667,0.75046498,
10.7720,0.0680,0.2902,0.8956,0.1149,-0.3561,-1.0086,-0.2525,0.1960,0.3586,25.25707000,83.00792667,0.75046498,
10.7900,0.0680,0.2902,0.8956,0.1149,-0.3561,-1.0086,0.1095,-0.2262,0.3754,25.25707000,83.00792667,0.75046498,
10.7920,0.0680,0.2902,0.8956,0.1037,-0.2092,-0.5244,0.1095,-0.2262,0.3754,25.25707000,83.00792667,0.75046498,
10.8390,0.0800,0.2871,0.9797,0.1037,-0.2092,-0.5244,0.1095,-0.2262,0.3754,25.25707000,83.00792667,0.75046498,
10.8530,0.0800,0.2871,0.9797,0.1037,-0.2092,-0.5244,-0.1610,0.0256,0.4554,25.25707000,83.00792667,0.75046498,
10.8700,0.0800,0.2871,0.9797,0.0164,-0.0109,-0.2354,-0.1610,0.0256,0.4554,25.25707000,83.00792667,0.75046498,
10.9190,0.0350,0.3142,0.9887,0.0164,-0.0109,-0.2354,-0.1610,0.0256,0.4554,25.25707000,83.00792667,0.75046498,
10.9540,0.0350,0.3142,0.9887,0.0164,-0.0109,-0.2354,0.0891,0.1166,-0.1510,25.25707000,83.00792667,0.75046498,
10.9550,0.0350,0.3142,0.9887,-0.2211,0.1204,0.3571,0.0891,0.1166,-0.1510,25.25707000,83.00792667,0.75046498,
10.9710,0.1541,0.3542,1.1458,-0.2211,0.1204,0.3571,0.0891,0.1166,-0.1510,25.25707000,83.00792667,0.75046498,
10.9850,0.1541,0.3542,1.1458,-0.2211,0.1204,0.3571,0.0999,-0.3669,0.2557,25.25708167,83.00790833,0.83951193,
10.9860,0.1541,0.3542,1.1458,0.7280,0.4334,1.9378,0.0999,-0.3669,0.2557,25.25708167,83.00790833,0.83951193,
11.0370,0.0250,0.2782,1.1248,0.7280,0.4334,1.9378,0.0999,-0.3669,0.2557,25.25708167,83.00790833,0.83951193,
11.0510,0.0250,0.2782,1.1248,0.7280,0.4334,1.9378,-0.4267,0.3447,0.1478,25.25708167,83.00790833,0.83951193,
11.0520,0.0250,0.2782,1.1248,-0.5942,0.1643,-0.1682,-0.4267,0.3447,0.1478,25.25708167,83.00790833,0.83951193,
11.1020,-0.0180,0.3362,0.8746,-0.5942,0.1643,-0.1682,-0.4267,0.3447,0.1478,25.25708167,83.00790833,0.83951193,
11.1310,-0.0180,0.3362,0.8746,-0.5942,0.1643,-0.1682,0.1699,0.3502,-0.8108,25.25708167,83.00790833,0.83951193,
11.1330,-0.0180,0.3362,0.8746,-0.4726,0.4660,-1.4216,0.1699,0.3502,-0.8108,25.25708167,83.00790833,0.83951193,
11.1720,0.0960,0.3622,0.8646,-0.4726,0.4660,-1.4216,0.1699,0.3502,-0.8108,25.25708167,83.00790833,0.83951193,
11.1830,0.0960,0.3622,0.8646,-0.4726,0.4660,-1.4216,0.6938,-0.4134,-0.5480,25.25708167,83.00790833,0.83951193,
11.1850,0.0960,0.3622,0.8646,0.5693,0.2954,-0.7698,0.6938,-0.4134,-0.5480,25.25708167,83.00790833,0.83951193,
11.2350,0.0150,0.3492,0.8065,0.5693,0.2954,-0.7698,0.6938,-0.4134,-0.5480,25.25708167,83.00790833,0.83951193,
11.2500,0.0150,0.3492,0.8065,0.5693,0.2954,-0.7698,0.3974,-0.1520,-0.4007,25.25708167,83.00790833,0.83951193,
11.2530,0.0150,0.3492,0.8065,-0.2771,-0.0571,-1.2544,0.3974,-0.1520,-0.4007,25.25708167,83.00790833,0.83951193,
11.3000,0.0059,0.3762,0.8186,-0.2771,-0.0571,-1.2544,0.3974,-0.1520,-0.4007,25.25708167,83.00790833,0.83951193,
11.3270,0.0059,0.3762,0.8186,-0.2771,-0.0571,-1.2544,0.4244,-0.0255,-0.5543,25.25708167,83.00790833,0.83951193,
11.3300,0.0059,0.3762,0.8186,0.1128,0.1047,-1.5159,0.4244,-0.0255,-0.5543,25.25708167,83.00790833,0.83951193,
11.3680,0.1020,0.4183,0.8836,0.1128,0.1047,-1.5159,0.4244,-0.0255,-0.5543,25.25708167,83.00790833,0.83951193,
11.3810,0.1020,0.4183,0.8836,0.1128,0.1047,-1.5159,0.4917,-0.4344,0.1292,25.25708167,83.00790833,0.83951193,
11.3830,0.1020,0.4183,0.8836,0.4670,-0.0178,-0.2252,0.4917,-0.4344,0.1292,25.25708167,83.00790833,0.83951193,
11.4320,-0.0400,0.3662,1.0077,0.4670,-0.0178,-0.2252,0.4917,-0.4344,0.1292,25.25708167,83.00790833,0.83951193,
11.4480,-0.0400,0.3662,1.0077,0.4670,-0.0178,-0.2252,-0.3204,0.3424,0.1050,25.25708167,83.00790833,0.83951193,
11.4510,-0.0400,0.3662,1.0077,-0.8613,-0.3937,0.9264,-0.3204,0.3424,0.1050,25.25708167,83.00790833,0.83951193,
11.4990,-0.1341,0.3833,0.9537,-0.8613,-0.3937,0.9264,-0.3204,0.3424,0.1050,25.25708167,83.00790833,0.83951193,
11.5170,-0.1341,0.3833,0.9537,-0.8613,-0.3937,0.9264,-0.3026,0.8094,-0.7107,25.25708167,83.00790833,0.83951193,
11.5200,-0.1341,0.3833,0.9537,-0.9170,0.4672,0.2888,-0.3026,0.8094,-0.7107,25.25708167,83.00790833,0.83951193,
11.5650,-0.1110,0.3011,1.2768,-0.9170,0.4672,0.2888,-0.3026,0.8094,-0.7107,25.25708167,83.00790833,0.83951193,
11.5800,-0.1110,0.3011,1.2768,-0.9170,0.4672,0.2888,-0.5657,0.4860,0.1131,25.25708167,83.00790833,0.83951193,
11.5810,-0.1110,0.3011,1.2768,-0.5544,-0.5466,3.3675,-0.5657,0.4860,0.1131,25.25708167,83.00790833,0.83951193,
11.6300,-0.1160,0.3011,1.0527,-0.5544,-0.5466,3.3675,-0.5657,0.4860,0.1131,25.25708167,83.00790833,0.83951193,
11.6460,-0.1160,0.3011,1.0527,-0.5544,-0.5466,3.3675,-0.7650,0.5333,0.4417,25.25708167,83.00790833,0.83951193,
11.6500,-0.1160,0.3011,1.0527,-0.3352,0.0603,0.9802,-0.7650,0.5333,0.4417,25.25708167,83.00790833,0.83951193,
11.6980,0.0159,0.2521,1.0166,-0.3352,0.0603,0.9802,-0.7650,0.5333,0.4417,25.25708167,83.00790833,0.83951193,
11.7140,0.0159,0.2521,1.0166,-0.3352,0.0603,0.9802,-0.4759,-0.1444,1.0645,25.25708167,83.00790833,0.83951193,
11.7160,0.0159,0.2521,1.0166,1.7520,-0.1899,-0.6437,-0.4759,-0.1444,1.0645,25.25708167,83.00790833,0.83951193,
11.7620,0.0750,0.1970,0.9997,1.7520,-0.1899,-0.6437,-0.4759,-0.1444,1.0645,25.25708167,83.00790833,0.83951193,
11.7780,0.0750,0.1970,0.9997,1.7520,-0.1899,-0.6437,-0.4558,-0.5508,1.6383,25.25708167,83.00790833,0.83951193,
11.7810,0.0750,0.1970,0.9997,0.4535,-0.6377,-0.0026,-0.4558,-0.5508,1.6383,25.25708167,83.00790833,0.83951193,
11.8300,0.1040,0.1951,0.7405,0.4535,-0.6377,-0.0026,-0.4558,-0.5508,1.6383,25.25708167,83.00790833,0.83951193,
11.8440,0.1040,0.1951,0.7405,0.4535,-0.6377,-0.0026,-0.1342,-0.5093,0.9791,25.25708167,83.00790833,0.83951193,
11.8500,0.1040,0.1951,0.7405,0.5848,-0.3089,-2.2844,-0.1342,-0.5093,0.9791,25.25708167,83.00790833,0.83951193,
11.8940,0.2111,0.2611,0.8105,0.5848,-0.3089,-2.2844,-0.1342,-0.5093,0.9791,25.25708167,83.00790833,0.83951193,
11.9250,0.2111,0.2611,0.8105,0.5848,-0.3089,-2.2844,0.3841,-1.0935,0.6052,25.25708167,83.00790833,0.83951193,
11.9340,0.2111,0.2611,0.8105,0.8882,0.1178,-0.9106,0.3841,-1.0935,0.6052,25.25708167,83.00790833,0.83951193,
11.9720,0.2051,0.2421,0.9827,0.8882,0.1178,-0.9106,0.3841,-1.0935,0.6052,25.25708167,83.00790833,0.83951193,
11.9830,0.2051,0.2421,0.9827,0.8882,0.1178,-0.9106,0.1485,-0.5693,0.4624,25.25708167,83.00790833,0.83951193,
11.9840,0.2051,0.2421,0.9827,-0.0983,0.0934,-0.6086,0.1485,-0.5693,0.4624,25.25708167,83.00790833,0.83951193,
12.0260,0.1391,0.2992,1.0177,-0.0983,0.0934,-0.6086,0.1485,-0.5693,0.4624,25.25708167,83.00790833,0.83951193,
12.0410,0.1391,0.2992,1.0177,-0.0983,0.0934,-0.6086,0.1202,0.2121,-0.4035,25.25709000,83.00789000,0.88326335,
12.0430,0.1391,0.2992,1.0177,-0.2013,0.2993,0.6569,0.1202,0.2121,-0.4035,25.25709000,83.00789000,0.88326335,
12.0920,0.0850,0.3092,1.0547,-0.2013,0.2993,0.6569,0.1202,0.2121,-0.4035,25.25709000,83.00789000,0.88326335,
12.1100,0.0850,0.3092,1.0547,-0.2013,0.2993,0.6569,0.1222,0.1943,-0.4325,25.25709000,83.00789000,0.88326335,
12.1140,0.0850,0.3092,1.0547,-1.1549,0.1989,2.3173,0.1222,0.1943,-0.4325,25.25709000,83.00789000,0.88326335,
12.1590,0.0190,0.3052,0.9787,-1.1549,0.1989,2.3173,0.1222,0.1943,-0.4325,25.25709000,83.00789000,0.88326335,
12.1740,0.0190,0.3052,0.9787,-1.1549,0.1989,2.3173,-0.1842,0.8190,-0.5837,25.25709000,83.00789000,0.88326335,
12.1750,0.0190,0.3052,0.9787,-0.7651,0.3041,0.2085,-0.1842,0.8190,-0.5837,25.25709000,83.00789000,0.88326335,
12.2250,0.0770,0.3702,0.7905,-0.7651,0.3041,0.2085,-0.1842,0.8190,-0.5837,25.25709000,83.00789000,0.88326335,
12.2390,0.0770,0.3702,0.7905,-0.7651,0.3041,0.2085,0.7232,-0.2144,-1.0395,25.25709000,83.00789000,0.88326335,
12.2430,0.0770,0.3702,0.7905,-0.1134,0.3359,-0.6721,0.7232,-0.2144,-1.0395,25.25709000,83.00789000,0.88326335,
12.2900,-0.0069,0.3662,0.9537,-0.1134,0.3359,-0.6721,0.7232,-0.2144,-1.0395,25.25709000,83.00789000,0.88326335,
12.3070,-0.0069,0.3662,0.9537,-0.1134,0.3359,-0.6721,0.3305,0.0601,-0.7711,25.25709000,83.00789000,0.88326335,
12.3080,-0.0069,0.3662,0.9537,-0.6390,0.1090,0.1960,0.3305,0.0601,-0.7711,25.25709000,83.00789000,0.88326335,
12.3570,-0.0931,0.3492,0.9456,-0.6390,0.1090,0.1960,0.3305,0.0601,-0.7711,25.25709000,83.00789000,0.88326335,
12.3710,-0.0931,0.3492,0.9456,-0.6390,0.1090,0.1960,-0.0020,0.5732,-0.9947,25.25709000,83.00789000,0.88326335,
12.3730,-0.0931,0.3492,0.9456,-0.8057,-0.1864,-0.1201,-0.0020,0.5732,-0.9947,25.25709000,83.00789000,0.88326335,
12.4230,-0.0119,0.3262,0.9456,-0.8057,-0.1864,-0.1201,-0.0020,0.5732,-0.9947,25.25709000,83.00789000,0.88326335,
12.4380,-0.0119,0.3262,0.9456,-0.8057,-0.1864,-0.1201,-0.1839,0.2505,-0.0679,25.25709000,83.00789000,0.88326335,
12.4410,-0.0119,0.3262,0.9456,0.4943,-0.4297,-0.1585,-0.1839,0.2505,-0.0679,25.25709000,83.00789000,0.88326335,
12.4890,-0.0300,0.2732,0.9046,0.4943,-0.4297,-0.1585,-0.1839,0.2505,-0.0679,25.25709000,83.00789000,0.88326335,
12.5050,-0.0300,0.2732,0.9046,0.4943,-0.4297,-0.1585,-0.3247,0.1595,0.5497,25.25709000,83.00789000,0.88326335,
12.5060,-0.0300,0.2732,0.9046,-0.0348,-0.5650,-0.3861,-0.3247,0.1595,0.5497,25.25709000,83.00789000,0.88326335,
12.5560,0.0240,0.2351,1.0447,-0.0348,-0.5650,-0.3861,-0.3247,0.1595,0.5497,25.25709000,83.00789000,0.88326335,
12.5700,0.0240,0.2351,1.0447,-0.0348,-0.5650,-0.3861,-0.7476,0.2003,1.5404,25.25709000,83.00789000,0.88326335,
12.5730,0.0240,0.2351,1.0447,0.5048,-0.5132,0.0892,-0.7476,0.2003,1.5404,25.25709000,83.00789000,0.88326335,
12.6210,-0.0119,0.2332,0.9456,0.5048,-0.5132,0.0892,-0.7476,0.2003,1.5404,25.25709000,83.00789000,0.88326335,
12.6360,-0.0119,0.2332,0.9456,0.5048,-0.5132,0.0892,-0.4032,0.1735,0.9091,25.25709000,83.00789000,0.88326335,
12.6410,-0.0119,0.2332,0.9456,-0.5542,-0.2519,0.4620,-0.4032,0.1735,0.9091,25.25709000,83.00789000,0.88326335,
12.6880,-0.0130,0.2521,1.0066,-0.5542,-0.2519,0.4620,-0.4032,0.1735,0.9091,25.25709000,83.00789000,0.88326335,
12.7030,-0.0130,0.2521,1.0066,-0.5542,-0.2519,0.4620,-0.1694,0.2314,0.2173,25.25709000,83.00789000,0.88326335,
12.7040,-0.0130,0.2521,1.0066,0.0885,0.0888,0.3553,-0.1694,0.2314,0.2173,25.25709000,83.00789000,0.88326335,
12.7520,-0.0030,0.2151,0.9327,0.0885,0.0888,0.3553,-0.1694,0.2314,0.2173,25.25709000,83.00789000,0.88326335,
12.7700,-0.0030,0.2151,0.9327,0.0885,0.0888,0.3553,-0.1552,-0.0377,0.3834,25.25709000,83.00789000,0.88326335,
12.7720,-0.0030,0.2151,0.9327,0.0940,-0.1892,-0.3922,-0.1552,-0.0377,0.3834,25.25709000,83.00789000,0.88326335,
12.8200,-0.0960,0.1970,0.8946,0.0940,-0.1892,-0.3922,-0.1552,-0.0377,0.3834,25.25709000,83.00789000,0.88326335,
12.8340,-0.0960,0.1970,0.8946,0.0940,-0.1892,-0.3922,-0.1065,0.3395,-0.5651,25.25709000,83.00789000,0.88326335,
12.8360,-0.0960,0.1970,0.8946,-1.0985,-0.5751,-0.5854,-0.1065,0.3395,-0.5651,25.25709000,83.00789000,0.88326335,
12.8850,-0.1560,0.1861,0.9136,-1.0985,-0.5751,-0.5854,-0.1065,0.3395,-0.5651,25.25709000,83.00789000,0.88326335,
12.9150,-0.1560,0.1861,0.9136,-1.0985,-0.5751,-0.5854,-0.1080,0.4873,-1.4208,25.25709000,83.00789000,0.88326335,
12.9200,-0.1560,0.1861,0.9136,0.9256,0.1970,0.6670,-0.1080,0.4873,-1.4208,25.25709000,83.00789000,0.88326335,
12.9550,0.0650,0.2792,1.1628,0.9256,0.1970,0.6670,-0.1080,0.4873,-1.4208,25.25709000,83.00789000,0.88326335,
12.9730,0.0650,0.2792,1.1628,0.9256,0.1970,0.6670,0.1039,-0.9064,-0.3236,25.25709000,83.00789000,0.88326335,
12.9750,0.0650,0.2792,1.1628,1.0883,0.6094,1.8326,0.1039,-0.9064,-0.3236,25.25709000,83.00789000,0.88326335,
13.0170,-0.0840,0.2161,1.2218,1.0883,0.6094,1.8326,0.1039,-0.9064,-0.3236,25.25709000,83.00789000,0.88326335,
13.0320,-0.0840,0.2161,1.2218,1.0883,0.6094,1.8326,-0.1368,-0.3770,-1.3004,25.25709333,83.00787833,0.90385222,
13.0330,-0.0840,0.2161,1.2218,-0.5192,0.0560,2.3922,-0.1368,-0.3770,-1.3004,25.25709333,83.00787833,0.90385222,
13.0820,-0.0009,0.2401,1.1017,-0.5192,0.0560,2.3922,-0.1368,-0.3770,-1.3004,25.25709333,83.00787833,0.90385222,
13.1080,-0.0009,0.2401,1.1017,-0.5192,0.0560,2.3922,0.0448,-0.5601,-2.0434,25.25709333,83.00787833,0.90385222,
13.1110,-0.0009,0.2401,1.1017,0.1906,0.3564,1.0840,0.0448,-0.5601,-2.0434,25.25709333,83.00787833,0.90385222,
13.1530,-0.0140,0.2721,0.9306,0.1906,0.3564,1.0840,0.0448,-0.5601,-2.0434,25.25709333,83.00787833,0.90385222,
13.1640,-0.0140,0.2721,0.9306,0.1906,0.3564,1.0840,0.3937,-0.7691,-2.7938,25.25709333,83.00787833,0.90385222,
13.1690,-0.0140,0.2721,0.9306,0.0165,0.4904,-0.4400,0.3937,-0.7691,-2.7938,25.25709333,83.00787833,0.90385222,
13.2140,-0.0640,0.2761,0.9747,0.0165,0.4904,-0.4400,0.3937,-0.7691,-2.7938,25.25709333,83.00787833,0.90385222,
13.2300,-0.0640,0.2761,0.9747,0.0165,0.4904,-0.4400,0.4766,-0.6170,-3.7556,25.25709333,83.00787833,0.90385222,
13.2310,-0.0640,0.2761,0.9747,-0.3017,0.2897,0.0537,0.4766,-0.6170,-3.7556,25.25709333,83.00787833,0.90385222,
13.2810,-0.0330,0.2952,0.9106,-0.3017,0.2897,0.0537,0.4766,-0.6170,-3.7556,25.25709333,83.00787833,0.90385222,
13.3190,-0.0330,0.2952,0.9106,-0.3017,0.2897,0.0537,0.4739,-0.4867,-2.0177,25.25709333,83.00787833,0.90385222,
13.3240,-0.0330,0.2952,0.9106,-0.3510,0.0751,-0.1369,0.4739,-0.4867,-2.0177,25.25709333,83.00787833,0.90385222,
13.3510,0.0660,0.2711,0.8916,-0.3510,0.0751,-0.1369,0.4739,-0.4867,-2.0177,25.25709333,83.00787833,0.90385222,
13.3610,0.0660,0.2711,0.8916,-0.3510,0.0751,-0.1369,0.1373,-0.3272,-0.0956,25.25709333,83.00787833,0.90385222,
13.3630,0.0660,0.2711,0.8916,0.9615,-0.1343,-0.6574,0.1373,-0.3272,-0.0956,25.25709333,83.00787833,0.90385222,
13.4130,0.0840,0.3312,0.9026,0.9615,-0.1343,-0.6574,0.1373,-0.3272,-0.0956,25.25709333,83.00787833,0.90385222,
13.4280,0.0840,0.3312,0.9026,0.9615,-0.1343,-0.6574,0.2918,-0.3661,1.5684,25.25709333,83.00787833,0.90385222,
13.4310,0.0840,0.3312,0.9026,0.6225,0.3161,-0.5112,0.2918,-0.3661,1.5684,25.25709333,83.00787833,0.90385222,
13.4820,0.0259,0.3111,0.9086,0.6225,0.3161,-0.5112,0.2918,-0.3661,1.5684,25.25709333,83.00787833,0.90385222,
13.5190,0.0259,0.3111,0.9086,0.6225,0.3161,-0.5112,0.2885,-0.2369,0.0344,25.25709333,83.00787833,0.90385222,
13.5340,0.0259,0.3111,0.9086,-0.3501,-0.2068,0.9460,0.2885,-0.2369,0.0344,25.25709333,83.00787833,0.90385222,
13.5710,-0.0250,0.3082,0.9577,-0.3501,-0.2068,0.9460,0.2885,-0.2369,0.0344,25.25709333,83.00787833,0.90385222,
13.5730,-0.0250,0.3082,0.9577,-0.3501,-0.2068,0.9460,-0.1248,0.0177,-0.9632,25.25709333,83.00787833,0.90385222,
13.5740,-0.0250,0.3082,0.9577,-0.6586,0.0560,-0.2067,-0.1248,0.0177,-0.9632,25.25709333,83.00787833,0.90385222,
13.6120,-0.0190,0.2982,0.9916,-0.6586,0.0560,-0.2067,-0.1248,0.0177,-0.9632,25.25709333,83.00787833,0.90385222,
13.6250,-0.0190,0.2982,0.9916,-0.6586,0.0560,-0.2067,-0.1341,-0.0022,-1.1918,25.25709333,83.00787833,0.90385222,
13.6260,-0.0190,0.2982,0.9916,-0.0854,-0.0665,0.3792,-0.1341,-0.0022,-1.1918,25.25709333,83.00787833,0.90385222,
13.6770,0.0250,0.2792,0.8636,-0.0854,-0.0665,0.3792,-0.1341,-0.0022,-1.1918,25.25709333,83.00787833,0.90385222,
13.6930,0.0250,0.2792,0.8636,-0.0854,-0.0665,0.3792,-0.0251,-0.1130,0.1045,25.25709333,83.00787833,0.90385222,
13.6940,0.0250,0.2792,0.8636,0.5442,-0.1834,-0.8996,-0.0251,-0.1130,0.1045,25.25709333,83.00787833,0.90385222,
13.7460,0.0881,0.2801,0.9086,0.5442,-0.1834,-0.8996,-0.0251,-0.1130,0.1045,25.25709333,83.00787833,0.90385222,
13.7570,0.0881,0.2801,0.9086,0.5442,-0.1834,-0.8996,-0.0082,-0.2386,1.1805,25.25709333,83.00787833,0.90385222,
13.7590,0.0881,0.2801,0.9086,0.9314,-0.1566,-0.3675,-0.0082,-0.2386,1.1805,25.25709333,83.00787833,0.90385222,
13.8090,0.1260,0.3121,0.8956,0.9314,-0.1566,-0.3675,-0.0082,-0.2386,1.1805,25.25709333,83.00787833,0.90385222,
13.8230,0.1260,0.3121,0.8956,0.9314,-0.1566,-0.3675,0.2756,-0.3578,0.9236,25.25709333,83.00787833,0.90385222,
13.8240,0.1260,0.3121,0.8956,0.1843,0.2854,-0.6058,0.2756,-0.3578,0.9236,25.25709333,83.00787833,0.90385222,
13.8750,0.0790,0.3833,0.9456,0.1843,0.2854,-0.6058,0.2756,-0.3578,0.9236,25.25709333,83.00787833,0.90385222,
13.8960,0.0790,0.3833,0.9456,0.1843,0.2854,-0.6058,0.4983,-0.2483,-0.3185,25.25709333,83.00787833,0.90385222,
13.8990,0.0790,0.3833,0.9456,-0.4131,0.5974,-0.0071,0.4983,-0.2483,-0.3185,25.25709333,83.00787833,0.90385222,
13.9400,0.0650,0.4453,0.9747,-0.4131,0.5974,-0.0071,0.4983,-0.2483,-0.3185,25.25709333,83.00787833,0.90385222,
13.9550,0.0650,0.4453,0.9747,-0.4131,0.5974,-0.0071,0.4929,-0.1000,-0.7635,25.25707500,83.00786000,0.92238224,
13.9560,0.0650,0.4453,0.9747,-0.0645,0.6677,0.4966,0.4929,-0.1000,-0.7635,25.25707500,83.00786000,0.92238224,
14.0060,-0.0100,0.4713,0.9076,-0.0645,0.6677,0.4966,0.4929,-0.1000,-0.7635,25.25707500,83.00786000,0.92238224,
14.0210,-0.0100,0.4713,0.9076,-0.0645,0.6677,0.4966,0.4766,0.0186,-1.0386,25.25707500,83.00786000,0.92238224,
14.0220,-0.0100,0.4713,0.9076,-1.3169,0.4480,0.7864,0.4766,0.0186,-1.0386,25.25707500,83.00786000,0.92238224,
14.0730,-0.0200,0.4172,1.0657,-1.3169,0.4480,0.7864,0.4766,0.0186,-1.0386,25.25707500,83.00786000,0.92238224,
14.1000,-0.0200,0.4172,1.0657,-1.3169,0.4480,0.7864,-0.2957,0.2234,-1.2649,25.25707500,83.00786000,0.92238224,
14.1020,-0.0200,0.4172,1.0657,-0.1966,0.1841,1.4487,-0.2957,0.2234,-1.2649,25.25707500,83.00786000,0.92238224,
14.1390,-0.0950,0.3822,1.0507,-0.1966,0.1841,1.4487,-0.2957,0.2234,-1.2649,25.25707500,83.00786000,0.92238224,
14.1530,-0.0950,0.3822,1.0507,-0.1966,0.1841,1.4487,-0.3347,0.1612,-0.6838,25.25707500,83.00786000,0.92238224,
14.1550,-0.0950,0.3822,1.0507,-0.7215,0.0236,1.2275,-0.3347,0.1612,-0.6838,25.25707500,83.00786000,0.92238224,
14.2060,-0.0569,0.2692,1.1147,-0.7215,0.0236,1.2275,-0.3347,0.1612,-0.6838,25.25707500,83.00786000,0.92238224,
14.2200,-0.0569,0.2692,1.1147,-0.7215,0.0236,1.2275,-0.5305,-1.2245,-4.4709,25.25707500,83.00786000,0.92238224,
14.2230,-0.0569,0.2692,1.1147,-0.0271,-0.7213,1.7267,-0.5305,-1.2245,-4.4709,25.25707500,83.00786000,0.92238224,
14.2710,-0.0780,0.2291,0.8326,-0.0271,-0.7213,1.7267,-0.5305,-1.2245,-4.4709,25.25707500,83.00786000,0.92238224,
14.2880,-0.0780,0.2291,0.8326,-0.0271,-0.7213,1.7267,-0.1816,-3.0326,-9.8971,25.25707500,83.00786000,0.92238224,
14.2910,-0.0780,0.2291,0.8326,-0.2582,-0.5448,-1.2286,-0.1816,-3.0326,-9.8971,25.25707500,83.00786000,0.92238224,
14.3380,0.1040,0.2211,0.8576,-0.2582,-0.5448,-1.2286,-0.1816,-3.0326,-9.8971,25.25707500,83.00786000,0.92238224,
14.3510,0.1040,0.2211,0.8576,-0.2582,-0.5448,-1.2286,-0.0280,-2.2339,-5.8117,25.25707500,83.00786000,0.92238224,
14.3540,0.1040,0.2211,0.8576,1.3284,-0.3945,-1.0569,-0.0280,-2.2339,-5.8117,25.25707500,83.00786000,0.92238224,
14.4030,0.0430,0.2201,0.8906,1.3284,-0.3945,-1.0569,-0.0280,-2.2339,-5.8117,25.25707500,83.00786000,0.92238224,
14.4170,0.0430,0.2201,0.8906,1.3284,-0.3945,-1.0569,-0.1236,-1.5137,-2.1760,25.25707500,83.00786000,0.92238224,
14.4210,0.0430,0.2201,0.8906,0.0918,-0.3431,-0.7491,-0.1236,-1.5137,-2.1760,25.25707500,83.00786000,0.92238224,
14.4690,0.0350,0.2451,0.9136,0.0918,-0.3431,-0.7491,-0.1236,-1.5137,-2.1760,25.25707500,83.00786000,0.92238224,
14.4860,0.0350,0.2451,0.9136,0.0918,-0.3431,-0.7491,0.0077,-0.1158,-0.5121,25.25707500,83.00786000,0.92238224,
14.4870,0.0350,0.2451,0.9136,0.1732,0.1985,-1.2620,0.0077,-0.1158,-0.5121,25.25707500,83.00786000,0.92238224,
14.5340,0.0440,0.3371,0.7665,0.1732,0.1985,-1.2620,0.0077,-0.1158,-0.5121,25.25707500,83.00786000,0.92238224,
14.5540,0.0440,0.3371,0.7665,0.1732,0.1985,-1.2620,0.7747,0.4433,1.4475,25.25707500,83.00786000,0.92238224,
14.5650,0.0440,0.3371,0.7665,0.2128,0.4510,-1.8675,0.7747,0.4433,1.4475,25.25707500,83.00786000,0.92238224,
14.6000,0.0920,0.3783,1.0047,0.2128,0.4510,-1.8675,0.7747,0.4433,1.4475,25.25707500,83.00786000,0.92238224,
14.6150,0.0920,0.3783,1.0047,0.2128,0.4510,-1.8675,0.5727,0.0507,1.3294,25.25707500,83.00786000,0.92238224,
14.6170,0.0920,0.3783,1.0047,0.6574,0.6001,0.9277,0.5727,0.0507,1.3294,25.25707500,83.00786000,0.92238224,
14.6670,0.0770,0.3762,1.1798,0.6574,0.6001,0.9277,0.5727,0.0507,1.3294,25.25707500,83.00786000,0.92238224,
14.6830,0.0770,0.3762,1.1798,0.6574,0.6001,0.9277,-0.1765,-0.2768,-0.2913,25.25707500,83.00786000,0.92238224,
14.6850,0.0770,0.3762,1.1798,-0.2743,0.1597,3.0788,-0.1765,-0.2768,-0.2913,25.25707500,83.00786000,0.92238224,
14.7330,0.0410,0.3532,1.0828,-0.2743,0.1597,3.0788,-0.1765,-0.2768,-0.2913,25.25707500,83.00786000,0.92238224,
14.7480,0.0410,0.3532,1.0828,-0.2743,0.1597,3.0788,-0.4333,-0.0715,-1.0490,25.25707500,83.00786000,0.92238224,
14.7500,0.0410,0.3532,1.0828,-0.1077,0.4449,1.2937,-0.4333,-0.0715,-1.0490,25.25707500,83.00786000,0.92238224,
14.8010,0.0680,0.2842,0.9696,-0.1077,0.4449,1.2937,-0.4333,-0.0715,-1.0490,25.25707500,83.00786000,0.92238224,
14.8140,0.0680,0.2842,0.9696,-0.1077,0.4449,1.2937,-0.0305,-0.3158,-0.1376,25.25707500,83.00786000,0.92238224,
14.8170,0.0680,0.2842,0.9696,0.0049,-0.2416,0.1985,-0.0305,-0.3158,-0.1376,25.25707500,83.00786000,0.92238224,
14.8650,0.1060,0.2501,0.8765,0.0049,-0.2416,0.1985,-0.0305,-0.3158,-0.1376,25.25707500,83.00786000,0.92238224,
14.8810,0.1060,0.2501,0.8765,0.0049,-0.2416,0.1985,-0.3323,-0.4584,-0.8902,25.25707500,83.00786000,0.92238224,
14.8830,0.1060,0.2501,0.8765,-0.3257,-0.5718,-1.7241,-0.3323,-0.4584,-0.8902,25.25707500,83.00786000,0.92238224,
14.9380,-0.0881,0.2751,0.9236,-0.3257,-0.5718,-1.7241,-0.3323,-0.4584,-0.8902,25.25707500,83.00786000,0.92238224,
14.9520,-0.0881,0.2751,0.9236,-0.3257,-0.5718,-1.7241,-0.1185,0.6364,-0.7382,25.25707500,83.00786000,0.92238224,
14.9530,-0.0881,0.2751,0.9236,-1.4628,0.0790,0.1802,-0.1185,0.6364,-0.7382,25.25707500,83.00786000,0.92238224,
14.9960,0.0590,0.3032,0.9427,-1.4628,0.0790,0.1802,-0.1185,0.6364,-0.7382,25.25707500,83.00786000,0.92238224,
15.0110,0.0590,0.3032,0.9427,-1.4628,0.0790,0.1802,0.1148,0.2499,0.0440,25.25707167,83.00784833,0.92907363,
15.0120,0.0590,0.3032,0.9427,0.6070,0.1471,-0.1529,0.1148,0.2499,0.0440,25.25707167,83.00784833,0.92907363,
15.0620,0.0510,0.3221,0.8076,0.6070,0.1471,-0.1529,0.1148,0.2499,0.0440,25.25707167,83.00784833,0.92907363,
15.0910,0.0510,0.3221,0.8076,0.6070,0.1471,-0.1529,0.4045,-0.0476,0.8290,25.25707167,83.00784833,0.92907363,
15.0940,0.0510,0.3221,0.8076,0.6460,0.1580,-2.0026,0.4045,-0.0476,0.8290,25.25707167,83.00784833,0.92907363,
15.1290,0.0610,0.3792,0.8205,0.6460,0.1580,-2.0026,0.4045,-0.0476,0.8290,25.25707167,83.00784833,0.92907363,
15.1590,0.0610,0.3792,0.8205,0.6460,0.1580,-2.0026,0.8082,0.2129,1.8486,25.25707167,83.00784833,0.92907363,
15.1610,0.0610,0.3792,0.8205,0.4702,0.4102,-0.4901,0.8082,0.2129,1.8486,25.25707167,83.00784833,0.92907363,
15.2060,-0.0650,0.4193,1.0407,0.4702,0.4102,-0.4901,0.8082,0.2129,1.8486,25.25707167,83.00784833,0.92907363,
15.2090,-0.0650,0.4193,1.0407,0.4702,0.4102,-0.4901,0.4013,0.2987,0.8522,25.25707167,83.00784833,0.92907363,
15.2100,-0.0650,0.4193,1.0407,-1.2739,0.3798,1.1517,0.4013,0.2987,0.8522,25.25707167,83.00784833,0.92907363,
15.2600,-0.1010,0.4212,1.1248,-1.2739,0.3798,1.1517,0.4013,0.2987,0.8522,25.25707167,83.00784833,0.92907363,
15.2770,-0.1010,0.4212,1.1248,-1.2739,0.3798,1.1517,-0.0509,0.7842,-0.7765,25.25707167,83.00784833,0.92907363,
15.2780,-0.1010,0.4212,1.1248,-0.9068,0.3862,1.9589,-0.0509,0.7842,-0.7765,25.25707167,83.00784833,0.92907363,
15.3270,-0.0540,0.4562,0.9386,-0.9068,0.3862,1.9589,-0.0509,0.7842,-0.7765,25.25707167,83.00784833,0.92907363,
15.3410,-0.0540,0.4562,0.9386,-0.9068,0.3862,1.9589,0.1443,0.4368,0.0946,25.25707167,83.00784833,0.92907363,
15.3420,-0.0540,0.4562,0.9386,-0.1150,0.5230,0.6158,0.1443,0.4368,0.0946,25.25707167,83.00784833,0.92907363,
15.3930,-0.0830,0.3002,1.1038,-0.1150,0.5230,0.6158,0.1443,0.4368,0.0946,25.25707167,83.00784833,0.92907363,
15.4090,-0.0830,0.3002,1.1038,-0.1150,0.5230,0.6158,-0.6385,-0.2741,-1.1938,25.25707167,83.00784833,0.92907363,
15.4120,-0.0830,0.3002,1.1038,0.0367,-0.6566,1.6778,-0.6385,-0.2741,-1.1938,25.25707167,83.00784833,0.92907363,
15.4590,-0.0810,0.3321,0.8846,0.0367,-0.6566,1.6778,-0.6385,-0.2741,-1.1938,25.25707167,83.00784833,0.92907363,
15.4750,-0.0810,0.3321,0.8846,0.0367,-0.6566,1.6778,-0.1173,0.0805,0.0613,25.25707167,83.00784833,0.92907363,
15.4770,-0.0810,0.3321,0.8846,-0.2810,0.0124,-0.5717,-0.1173,0.0805,0.0613,25.25707167,83.00784833,0.92907363,
15.5240,0.0530,0.2842,0.8986,-0.2810,0.0124,-0.5717,-0.1173,0.0805,0.0613,25.25707167,83.00784833,0.92907363,
15.5390,0.0530,0.2842,0.8986,-0.2810,0.0124,-0.5717,-0.1042,-0.3240,0.0961,25.25707167,83.00784833,0.92907363,
15.5430,0.0530,0.2842,0.8986,0.9221,-0.4268,-0.4502,-0.1042,-0.3240,0.0961,25.25707167,83.00784833,0.92907363,
15.5900,-0.0500,0.2211,0.7905,0.9221,-0.4268,-0.4502,-0.1042,-0.3240,0.0961,25.25707167,83.00784833,0.92907363,
15.6060,-0.0500,0.2211,0.7905,0.9221,-0.4268,-0.4502,-0.3664,-0.2578,-0.5333,25.25707167,83.00784833,0.92907363,
15.6080,-0.0500,0.2211,0.7905,-0.8888,-0.7324,-2.1404,-0.3664,-0.2578,-0.5333,25.25707167,83.00784833,0.92907363,
15.6580,0.0620,0.2571,0.8346,-0.8888,-0.7324,-2.1404,-0.3664,-0.2578,-0.5333,25.25707167,83.00784833,0.92907363,
15.6740,0.0620,0.2571,0.8346,-0.8888,-0.7324,-2.1404,-0.1001,-0.0964,-0.1732,25.25707167,83.00784833,0.92907363,
15.6770,0.0620,0.2571,0.8346,0.9450,-0.3165,-1.2023,-0.1001,-0.0964,-0.1732,25.25707167,83.00784833,0.92907363,
15.7230,0.0590,0.3132,0.9256,0.9450,-0.3165,-1.2023,-0.1001,-0.0964,-0.1732,25.25707167,83.00784833,0.92907363,
15.7400,0.0590,0.3132,0.9256,0.9450,-0.3165,-1.2023,0.1927,-0.4634,0.7781,25.25707167,83.00784833,0.92907363,
15.7420,0.0590,0.3132,0.9256,0.4748,0.1259,-0.2828,0.1927,-0.4634,0.7781,25.25707167,83.00784833,0.92907363,
15.7900,0.0820,0.3262,0.9366,0.4748,0.1259,-0.2828,0.1927,-0.4634,0.7781,25.25707167,83.00784833,0.92907363,
15.8040,0.0820,0.3262,0.9366,0.4748,0.1259,-0.2828,0.1726,-0.2932,0.6692,25.25707167,83.00784833,0.92907363,
15.8070,0.0820,0.3262,0.9366,0.2971,0.2771,0.2543,0.1726,-0.2932,0.6692,25.25707167,83.00784833,0.92907363,
15.8600,0.0970,0.3883,0.9837,0.2971,0.2771,0.2543,0.1726,-0.2932,0.6692,25.25707167,83.00784833,0.92907363,
15.8710,0.0970,0.3883,0.9837,0.2971,0.2771,0.2543,0.2975,-0.0482,0.6933,25.25707167,83.00784833,0.92907363,
15.8720,0.0970,0.3883,0.9837,0.3037,0.6168,0.3889,0.2975,-0.0482,0.6933,25.25707167,83.00784833,0.92907363,
15.9210,0.2461,0.4012,1.0057,0.3037,0.6168,0.3889,0.2975,-0.0482,0.6933,25.25707167,83.00784833,0.92907363,
15.9360,0.2461,0.4012,1.0057,0.3037,0.6168,0.3889,0.5855,-0.2732,1.7631,25.25707167,83.00784833,0.92907363,
15.9390,0.2461,0.4012,1.0057,1.3289,0.4703,0.7452,0.5855,-0.2732,1.7631,25.25707167,83.00784833,0.92907363,
15.9860,0.1260,0.2902,1.1598,1.3289,0.4703,0.7452,0.5855,-0.2732,1.7631,25.25707167,83.00784833,0.92907363,
16.0010,0.1260,0.2902,1.1598,1.3289,0.4703,0.7452,-0.7847,-0.5544,-1.1362,25.25706667,83.00783833,0.92341167,
16.0030,0.1260,0.2902,1.1598,-0.5746,-0.6522,1.1125,-0.7847,-0.5544,-1.1362,25.25706667,83.00783833,0.92341167,
16.0520,0.0059,0.2391,0.8426,-0.5746,-0.6522,1.1125,-0.7847,-0.5544,-1.1362,25.25706667,83.00783833,0.92341167,
16.0910,0.0059,0.2391,0.8426,-0.5746,-0.6522,1.1125,-0.5964,0.1639,-1.3699,25.25706667,83.00783833,0.92341167,
16.0960,0.0059,0.2391,0.8426,-0.4786,-0.2780,-0.8700,-0.5964,0.1639,-1.3699,25.25706667,83.00783833,0.92341167,
16.1220,0.0860,0.2871,0.8856,-0.4786,-0.2780,-0.8700,-0.5964,0.1639,-1.3699,25.25706667,83.00783833,0.92341167,
16.1330,0.0860,0.2871,0.8856,-0.4786,-0.2780,-0.8700,-0.0598,0.1824,-0.2049,25.25706667,83.00783833,0.92341167,
16.1350,0.0860,0.2871,0.8856,-0.0060,-0.0465,-0.6619,-0.0598,0.1824,-0.2049,25.25706667,83.00783833,0.92341167,
16.1840,0.0109,0.3152,0.8726,-0.0060,-0.0465,-0.6619,-0.0598,0.1824,-0.2049,25.25706667,83.00783833,0.92341167,
16.2000,0.0109,0.3152,0.8726,-0.0060,-0.0465,-0.6619,0.2998,0.4910,0.1886,25.25706667,83.00783833,0.92341167,
16.2020,0.0109,0.3152,0.8726,-0.5745,0.2688,-0.4594,0.2998,0.4910,0.1886,25.25706667,83.00783833,0.92341167,
16.2500,0.0100,0.3802,0.8515,-0.5745,0.2688,-0.4594,0.2998,0.4910,0.1886,25.25706667,83.00783833,0.92341167,
16.2700,0.0100,0.3802,0.8515,-0.5745,0.2688,-0.4594,0.5967,0.7200,0.9300,25.25706667,83.00783833,0.92341167,
16.2770,0.0100,0.3802,0.8515,-0.1546,0.4827,-0.9642,0.5967,0.7200,0.9300,25.25706667,83.00783833,0.92341167,
16.3170,0.0440,0.4493,0.9196,-0.1546,0.4827,-0.9642,0.5967,0.7200,0.9300,25.25706667,83.00783833,0.92341167,
16.3310,0.0440,0.4493,0.9196,-0.1546,0.4827,-0.9642,0.7610,0.8289,1.9076,25.25706667,83.00783833,0.92341167,
16.3330,0.0440,0.4493,0.9196,0.1266,0.6067,-0.0249,0.7610,0.8289,1.9076,25.25706667,83.00783833,0.92341167,
16.3820,-0.0560,0.4252,1.1248,0.1266,0.6067,-0.0249,0.7610,0.8289,1.9076,25.25706667,83.00783833,0.92341167,
16.4000,-0.0560,0.4252,1.1248,0.1266,0.6067,-0.0249,0.0232,0.7691,0.6288,25.25706667,83.00783833,0.92341167,
16.4020,-0.0560,0.4252,1.1248,-0.6104,0.2983,2.0125,0.0232,0.7691,0.6288,25.25706667,83.00783833,0.92341167,
16.4490,-0.0600,0.4283,0.8946,-0.6104,0.2983,2.0125,0.0232,0.7691,0.6288,25.25706667,83.00783833,0.92341167,
16.4770,-0.0600,0.4283,0.8946,-0.6104,0.2983,2.0125,0.0866,0.6901,0.8016,25.25706667,83.00783833,0.92341167,
16.4820,-0.0600,0.4283,0.8946,0.1676,0.2587,0.3253,0.0866,0.6901,0.8016,25.25706667,83.00783833,0.92341167,
16.5160,-0.1191,0.3111,1.2098,0.1676,0.2587,0.3253,0.0866,0.6901,0.8016,25.25706667,83.00783833,0.92341167,
16.5290,-0.1191,0.3111,1.2098,0.1676,0.2587,0.3253,-0.5933,0.3479,0.2996,25.25706667,83.00783833,0.92341167,
16.5320,-0.1191,0.3111,1.2098,-0.8986,-0.5641,2.7434,-0.5933,0.3479,0.2996,25.25706667,83.00783833,0.92341167,
16.5800,-0.0931,0.3292,0.9577,-0.8986,-0.5641,2.7434,-0.5933,0.3479,0.2996,25.25706667,83.00783833,0.92341167,
16.5960,-0.0931,0.3292,0.9577,-0.8986,-0.5641,2.7434,-0.3442,0.5013,0.6758,25.25706667,83.00783833,0.92341167,
16.6000,-0.0931,0.3292,0.9577,-0.4254,-0.0516,0.1554,-0.3442,0.5013,0.6758,25.25706667,83.00783833,0.92341167,
16.6470,0.0150,0.2432,0.8596,-0.4254,-0.0516,0.1554,-0.3442,0.5013,0.6758,25.25706667,83.00783833,0.92341167,
16.6640,0.0150,0.2432,0.8596,-0.4254,-0.0516,0.1554,-0.4497,0.1841,0.8626,25.25706667,83.00783833,0.92341167,
16.6660,0.0150,0.2432,0.8596,1.1889,-0.7479,-1.8217,-0.4497,0.1841,0.8626,25.25706667,83.00783833,0.92341167,
16.7130,0.0360,0.1841,0.7385,1.1889,-0.7479,-1.8217,-0.4497,0.1841,0.8626,25.25706667,83.00783833,0.92341167,
16.7280,0.0360,0.1841,0.7385,1.1889,-0.7479,-1.8217,-0.4230,-0.1902,1.3633,25.25706667,83.00783833,0.92341167,
16.7300,0.0360,0.1841,0.7385,0.3292,-1.1575,-1.8566,-0.4230,-0.1902,1.3633,25.25706667,83.00783833,0.92341167,
16.7790,0.0650,0.2241,0.8916,0.3292,-1.1575,-1.8566,-0.4230,-0.1902,1.3633,25.25706667,83.00783833,0.92341167,
16.8010,0.0650,0.2241,0.8916,0.3292,-1.1575,-1.8566,-0.5716,-0.0191,1.0180,25.25706667,83.00783833,0.92341167,
16.8050,0.0650,0.2241,0.8916,0.7172,-0.2886,-0.7478,-0.5716,-0.0191,1.0180,25.25706667,83.00783833,0.92341167,
16.8470,0.1620,0.3052,0.8636,0.7172,-0.2886,-0.7478,-0.5716,-0.0191,1.0180,25.25706667,83.00783833,0.92341167,
16.8650,0.1620,0.3052,0.8636,0.7172,-0.2886,-0.7478,0.5941,-0.2715,3.6131,25.25706667,83.00783833,0.92341167,
16.8690,0.1620,0.3052,0.8636,-0.1459,0.2660,0.4481,0.5941,-0.2715,3.6131,25.25706667,83.00783833,0.92341167,
16.9120,0.0400,0.3042,1.0647,-0.1459,0.2660,0.4481,0.5941,-0.2715,3.6131,25.25706667,83.00783833,0.92341167,
16.9250,0.0400,0.3042,1.0647,-0.1459,0.2660,0.4481,0.2693,0.8469,2.5116,25.25706667,83.00783833,0.92341167,
16.9270,0.0400,0.3042,1.0647,-0.0071,0.4748,0.6498,0.2693,0.8469,2.5116,25.25706667,83.00783833,0.92341167,
16.9760,-0.0119,0.3742,1.1417,-0.0071,0.4748,0.6498,0.2693,0.8469,2.5116,25.25706667,83.00783833,0.92341167,
16.9910,-0.0119,0.3742,1.1417,-0.0071,0.4748,0.6498,0.3649,1.3467,2.5351,25.25706667,83.00783833,0.92341167,
16.9920,-0.0119,0.3742,1.1417,-0.7666,0.6972,1.9623,0.3649,1.3467,2.5351,25.25706667,83.00783833,0.92341167,
17.0420,0.0660,0.3572,1.0097,-0.7666,0.6972,1.9623,0.3649,1.3467,2.5351,25.25706667,83.00783833,0.92341167,
17.0630,0.0660,0.3572,1.0097,-0.7666,0.6972,1.9623,0.3356,1.0164,2.6229,25.25706667,83.00783833,0.92341167,
17.0660,0.0660,0.3572,1.0097,0.3660,0.3826,1.1651,0.3356,1.0164,2.6229,25.25706667,83.00783833,0.92341167,
17.1090,0.0480,0.3011,1.1317,0.3660,0.3826,1.1651,0.3356,1.0164,2.6229,25.25706667,83.00783833,0.92341167,
17.1230,0.0480,0.3011,1.1317,0.3660,0.3826,1.1651,-0.1396,0.8490,2.7254,25.25706667,83.00783833,0.92341167,
17.1250,0.0480,0.3011,1.1317,-0.6064,-0.1839,1.3506,-0.1396,0.8490,2.7254,25.25706667,83.00783833,0.92341167,
17.1770,-0.0680,0.2632,0.9687,-0.6064,-0.1839,1.3506,-0.1396,0.8490,2.7254,25.25706667,83.00783833,0.92341167,
17.1900,-0.0680,0.2632,0.9687,-0.6064,-0.1839,1.3506,-0.1803,1.3997,2.3833,25.25706667,83.00783833,0.92341167,
17.1910,-0.0680,0.2632,0.9687,-1.0660,-0.0374,-0.1375,-0.1803,1.3997,2.3833,25.25706667,83.00783833,0.92341167,
17.2410,0.0250,0.3082,0.9477,-1.0660,-0.0374,-0.1375,-0.1803,1.3997,2.3833,25.25706667,83.00783833,0.92341167,
17.2660,0.0250,0.3082,0.9477,-1.0660,-0.0374,-0.1375,0.0440,1.2032,3.4185,25.25706667,83.00783833,0.92341167,
17.2710,0.0250,0.3082,0.9477,0.4772,0.2155,-0.1066,0.0440,1.2032,3.4185,25.25706667,83.00783833,0.92341167,
17.3070,0.0900,0.3302,0.8386,0.4772,0.2155,-0.1066,0.0440,1.2032,3.4185,25.25706667,83.00783833,0.92341167,
17.3210,0.0900,0.3302,0.8386,0.4772,0.2155,-0.1066,0.4931,1.0983,5.3085,25.25706667,83.00783833,0.92341167,
17.3220,0.0900,0.3302,0.8386,0.1690,0.1648,-1.2416,0.4931,1.0983,5.3085,25.25706667,83.00783833,0.92341167,
17.3730,-0.1150,0.3552,0.7965,0.1690,0.1648,-1.2416,0.4931,1.0983,5.3085,25.25706667,83.00783833,0.92341167,
17.3870,-0.1150,0.3552,0.7965,0.1690,0.1648,-1.2416,0.6383,2.5629,5.6361,25.25706667,83.00783833,0.92341167,
17.3890,-0.1150,0.3552,0.7965,-0.8632,0.1997,-1.6113,0.6383,2.5629,5.6361,25.25706667,83.00783833,0.92341167,
17.4400,-0.0640,0.3733,0.7565,-0.8632,0.1997,-1.6113,0.6383,2.5629,5.6361,25.25706667,83.00783833,0.92341167,
17.4620,-0.0640,0.3733,0.7565,-0.8632,0.1997,-1.6113,0.2481,4.7541,10.0037,25.25706667,83.00783833,0.92341167,
17.4660,-0.0640,0.3733,0.7565,-0.1164,-0.2376,-1.5708,0.2481,4.7541,10.0037,25.25706667,83.00783833,0.92341167,
17.5070,-0.0590,0.3632,0.8715,-0.1164,-0.2376,-1.5708,0.2481,4.7541,10.0037,25.25706667,83.00783833,0.92341167,
17.5190,-0.0590,0.3632,0.8715,-0.1164,-0.2376,-1.5708,-0.6226,5.4348,11.5941,25.25706667,83.00783833,0.92341167,
17.5210,-0.0590,0.3632,0.8715,0.0834,-0.4806,-0.3702,-0.6226,5.4348,11.5941,25.25706667,83.00783833,0.92341167,
17.5710,-0.1320,0.3242,1.1938,0.0834,-0.4806,-0.3702,-0.6226,5.4348,11.5941,25.25706667,83.00783833,0.92341167,
17.5850,-0.1320,0.3242,1.1938,0.0834,-0.4806,-0.3702,-1.4627,2.9878,6.7130,25.25706667,83.00783833,0.92341167,
17.5870,-0.1320,0.3242,1.1938,-0.8923,0.1030,1.6960,-1.4627,2.9878,6.7130,25.25706667,83.00783833,0.92341167,
17.6370,-0.0730,0.3111,1.1578,-0.8923,0.1030,1.6960,-1.4627,2.9878,6.7130,25.25706667,83.00783833,0.92341167,
17.6530,-0.0730,0.3111,1.1578,-0.8923,0.1030,1.6960,-1.0936,1.6509,4.3982,25.25706667,83.00783833,0.92341167,
17.6540,-0.0730,0.3111,1.1578,-0.1475,-0.3608,2.2361,-1.0936,1.6509,4.3982,25.25706667,83.00783833,0.92341167,
17.7050,-0.0760,0.3121,0.7855,-0.1475,-0.3608,2.2361,-1.0936,1.6509,4.3982,25.25706667,83.00783833,0.92341167,
17.7170,-0.0760,0.3121,0.7855,-0.1475,-0.3608,2.2361,-0.4511,1.1612,3.5806,25.25706667,83.00783833,0.92341167,
17.7200,-0.0760,0.3121,0.7855,0.1498,0.1641,-1.6286,-0.4511,1.1612,3.5806,25.25706667,83.00783833,0.92341167,
17.7690,-0.0009,0.2832,1.0187,0.1498,0.1641,-1.6286,-0.4511,1.1612,3.5806,25.25706667,83.00783833,0.92341167,
17.7830,-0.0009,0.2832,1.0187,0.1498,0.1641,-1.6286,-0.3211,0.4854,3.0039,25.25706667,83.00783833,0.92341167,
17.7850,-0.0009,0.2832,1.0187,0.6503,-0.1543,0.6481,-0.3211,0.4854,3.0039,25.25706667,83.00783833,0.92341167,
17.8340,0.0000,0.2471,0.7685,0.6503,-0.1543,0.6481,-0.3211,0.4854,3.0039,25.25706667,83.00783833,0.92341167,
17.8510,0.0000,0.2471,0.7685,0.6503,-0.1543,0.6481,-0.1067,0.2883,2.8463,25.25706667,83.00783833,0.92341167,
17.8530,0.0000,0.2471,0.7685,0.0010,-0.6490,-1.3971,-0.1067,0.2883,2.8463,25.25706667,83.00783833,0.92341167,
17.9020,0.0119,0.2601,0.7826,0.0010,-0.6490,-1.3971,-0.1067,0.2883,2.8463,25.25706667,83.00783833,0.92341167,
17.9150,0.0119,0.2601,0.7826,0.0010,-0.6490,-1.3971,-0.0662,0.4502,2.0424,25.25706667,83.00783833,0.92341167,
17.9170,0.0119,0.2601,0.7826,0.3002,-0.3189,-1.7066,-0.0662,0.4502,2.0424,25.25706667,83.00783833,0.92341167,
17.9780,0.1620,0.3082,0.9937,0.3002,-0.3189,-1.7066,-0.0662,0.4502,2.0424,25.25706667,83.00783833,0.92341167,
17.9810,0.1620,0.3082,0.9937,0.3002,-0.3189,-1.7066,0.3565,-0.3737,2.0835,25.25706667,83.00783833,0.92341167,
17.9840,0.1620,0.3082,0.9937,1.2779,-0.0450,-1.5975,0.3565,-0.3737,2.0835,25.25706667,83.00783833,0.92341167,
18.0320,0.0900,0.2882,1.0857,1.2779,-0.0450,-1.5975,0.3565,-0.3737,2.0835,25.25706667,83.00783833,0.92341167,
18.0510,0.0900,0.2882,1.0857,1.2779,-0.0450,-1.5975,-0.3510,-0.2199,0.8904,25.25706667,83.00783833,0.92341167,
18.0570,0.0900,0.2882,1.0857,0.7372,0.2581,0.8332,-0.3510,-0.2199,0.8904,25.25706667,83.00783833,0.92341167,
18.1010,0.1070,0.2971,1.0938,0.7372,0.2581,0.8332,-0.3510,-0.2199,0.8904,25.25706667,83.00783833,0.92341167,
18.1140,0.1070,0.2971,1.0938,0.7372,0.2581,0.8332,-0.1228,0.0368,0.4716,25.25706667,83.00783833,0.92341167,
18.1170,0.1070,0.2971,1.0938,-0.6528,0.2107,1.6594,-0.1228,0.0368,0.4716,25.25706667,83.00783833,0.92341167,
18.1650,0.0460,0.3221,1.1588,-0.6528,0.2107,1.6594,-0.1228,0.0368,0.4716,25.25706667,83.00783833,0.92341167,
18.1800,0.0460,0.3221,1.1588,-0.6528,0.2107,1.6594,-0.1834,0.6473,-0.1323,25.25706667,83.00783833,0.92341167,
18.1830,0.0460,0.3221,1.1588,-0.0314,0.6299,1.8930,-0.1834,0.6473,-0.1323,25.25706667,83.00783833,0.92341167,
18.2300,0.2201,0.3061,1.0787,-0.0314,0.6299,1.8930,-0.1834,0.6473,-0.1323,25.25706667,83.00783833,0.92341167,
18.2470,0.2201,0.3061,1.0787,-0.0314,0.6299,1.8930,0.1790,-0.6267,0.2098,25.25706667,83.00783833,0.92341167,
18.2480,0.2201,0.3061,1.0787,1.3355,0.3628,1.1615,0.1790,-0.6267,0.2098,25.25706667,83.00783833,0.92341167,
18.2960,0.1110,0.2211,0.9646,1.3355,0.3628,1.1615,0.1790,-0.6267,0.2098,25.25706667,83.00783833,0.92341167,
18.3110,0.1110,0.2211,0.9646,1.3355,0.3628,1.1615,-0.2720,-0.3752,-0.4311,25.25706667,83.00783833,0.92341167,
18.3120,0.1110,0.2211,0.9646,-0.4517,-0.4293,-0.4031,-0.2720,-0.3752,-0.4311,25.25706667,83.00783833,0.92341167,
18.3630,-0.0920,0.2532,0.8676,-0.4517,-0.4293,-0.4031,-0.2720,-0.3752,-0.4311,25.25706667,83.00783833,0.92341167,
18.3770,-0.0920,0.2532,0.8676,-0.4517,-0.4293,-0.4031,-0.1245,0.6989,-0.6558,25.25706667,83.00783833,0.92341167,
18.3800,-0.0920,0.2532,0.8676,-1.5822,0.0494,-0.9733,-0.1245,0.6989,-0.6558,25.25706667,83.00783833,0.92341167,
18.4300,0.0660,0.3021,0.7776,-1.5822,0.0494,-0.9733,-0.1245,0.6989,-0.6558,25.25706667,83.00783833,0.92341167,
18.4540,0.0660,0.3021,0.7776,-1.5822,0.0494,-0.9733,0.4650,0.2610,-0.1781,25.25706667,83.00783833,0.92341167,
18.4550,0.0660,0.3021,0.7776,0.3965,0.2876,-1.8119,0.4650,0.2610,-0.1781,25.25706667,83.00783833,0.92341167,
18.4950,0.0900,0.3302,0.7695,0.3965,0.2876,-1.8119,0.4650,0.2610,-0.1781,25.25706667,83.00783833,0.92341167,
18.5090,0.0900,0.3302,0.7695,0.3965,0.2876,-1.8119,0.7912,-0.3118,0.3669,25.25706667,83.00783833,0.92341167,
18.5110,0.0900,0.3302,0.7695,0.5815,0.1390,-1.4620,0.7912,-0.3118,0.3669,25.25706667,83.00783833,0.92341167,
18.5600,0.1610,0.3692,0.7505,0.5815,0.1390,-1.4620,0.7912,-0.3118,0.3669,25.25706667,83.00783833,0.92341167,
18.5750,0.1610,0.3692,0.7505,0.5815,0.1390,-1.4620,0.8793,-0.5471,0.6776,25.25706667,83.00783833,0.92341167,
18.5770,0.1610,0.3692,0.7505,-0.0744,0.1104,-2.0443,0.8793,-0.5471,0.6776,25.25706667,83.00783833,0.92341167,
18.6280,-0.1501,0.3552,1.0187,-0.0744,0.1104,-2.0443,0.8793,-0.5471,0.6776,25.25706667,83.00783833,0.92341167,
18.6480,-0.1501,0.3552,1.0187,-0.0744,0.1104,-2.0443,0.0791,1.2623,-0.2318,25.25706667,83.00783833,0.92341167,
18.6540,-0.1501,0.3552,1.0187,-1.8795,-0.4140,0.9925,0.0791,1.2623,-0.2318,25.25706667,83.00783833,0.92341167,
18.6980,-0.0310,0.3252,1.1438,-1.8795,-0.4140,0.9925,0.0791,1.2623,-0.2318,25.25706667,83.00783833,0.92341167,
18.7070,-0.0310,0.3252,1.1438,-1.8795,-0.4140,0.9925,-0.7364,0.8983,-0.5356,25.25706667,83.00783833,0.92341167,
18.7080,-0.0310,0.3252,1.1438,-0.0834,-0.3519,2.0659,-0.7364,0.8983,-0.5356,25.25706667,83.00783833,0.92341167,
18.7590,0.1010,0.4162,1.1257,-0.0834,-0.3519,2.0659,-0.7364,0.8983,-0.5356,25.25706667,83.00783833,0.92341167,
18.7730,0.1010,0.4162,1.1257,-0.0834,-0.3519,2.0659,-0.2564,-0.1890,0.6971,25.25706667,83.00783833,0.92341167,
18.7740,0.1010,0.4162,1.1257,1.0759,0.4685,3.4650,-0.2564,-0.1890,0.6971,25.25706667,83.00783833,0.92341167,
18.8250,0.1350,0.3011,1.0878,1.0759,0.4685,3.4650,-0.2564,-0.1890,0.6971,25.25706667,83.00783833,0.92341167,
18.8430,0.1350,0.3011,1.0878,1.0759,0.4685,3.4650,-0.8365,-0.4968,0.1785,25.25706667,83.00783833,0.92341167,
18.8490,0.1350,0.3011,1.0878,0.9648,0.1893,1.2580,-0.8365,-0.4968,0.1785,25.25706667,83.00783833,0.92341167,
18.9070,0.1020,0.2782,0.8956,0.9648,0.1893,1.2580,-0.8365,-0.4968,0.1785,25.25706667,83.00783833,0.92341167,
18.9100,0.1020,0.2782,0.8956,0.9648,0.1893,1.2580,0.1016,-0.4096,0.4397,25.25706667,83.00783833,0.92341167,
18.9140,0.1020,0.2782,0.8956,0.2692,-0.3053,0.0539,0.1016,-0.4096,0.4397,25.25706667,83.00783833,0.92341167,
18.9570,0.1040,0.2621,0.8336,0.2692,-0.3053,0.0539,0.1016,-0.4096,0.4397,25.25706667,83.00783833,0.92341167,
18.9710,0.1040,0.2621,0.8336,0.2692,-0.3053,0.0539,0.0215,-0.2014,0.1778,25.25706167,83.00782833,0.77259803,
18.9730,0.1040,0.2621,0.8336,-0.3972,-0.2435,-1.7768,0.0215,-0.2014,0.1778,25.25706167,83.00782833,0.77259803,
19.0220,-0.0890,0.2751,0.6614,-0.3972,-0.2435,-1.7768,0.0215,-0.2014,0.1778,25.25706167,83.00782833,0.77259803,
19.0400,-0.0890,0.2751,0.6614,-0.3972,-0.2435,-1.7768,0.4404,0.7384,0.0329,25.25706167,83.00782833,0.77259803,
19.0430,-0.0890,0.2751,0.6614,-1.3520,-0.3638,-2.8224,0.4404,0.7384,0.0329,25.25706167,83.00782833,0.77259803,
19.0890,0.0109,0.2861,0.9646,-1.3520,-0.3638,-2.8224,0.4404,0.7384,0.0329,25.25706167,83.00782833,0.77259803,
19.1030,0.0109,0.2861,0.9646,-1.3520,-0.3638,-2.8224,0.0549,0.5801,-0.2482,25.25706167,83.00782833,0.77259803,
19.1050,0.0109,0.2861,0.9646,0.1241,-0.3683,0.1740,0.0549,0.5801,-0.2482,25.25706167,83.00782833,0.77259803,
19.1550,-0.0410,0.2952,1.0617,0.1241,-0.3683,0.1740,0.0549,0.5801,-0.2482,25.25706167,83.00782833,0.77259803,
19.1700,-0.0410,0.2952,1.0617,0.1241,-0.3683,0.1740,-0.3207,0.0448,-0.3351,25.25706167,83.00782833,0.77259803,
19.1710,-0.0410,0.2952,1.0617,-0.3460,-0.0970,1.0662,-0.3207,0.0448,-0.3351,25.25706167,83.00782833,0.77259803,
19.2210,-0.0290,0.3772,0.9196,-0.3460,-0.0970,1.0662,-0.3207,0.0448,-0.3351,25.25706167,83.00782833,0.77259803,
19.2390,-0.0290,0.3772,0.9196,-0.3460,-0.0970,1.0662,0.3054,0.1482,-0.3453,25.25706167,83.00782833,0.77259803,
19.2450,-0.0290,0.3772,0.9196,0.1068,0.7058,0.4651,0.3054,0.1482,-0.3453,25.25706167,83.00782833,0.77259803,
19.2870,-0.0730,0.3282,1.0988,0.1068,0.7058,0.4651,0.3054,0.1482,-0.3453,25.25706167,83.00782833,0.77259803,
19.3010,-0.0730,0.3282,1.0988,0.1068,0.7058,0.4651,-0.1288,0.1155,-0.6495,25.25706167,83.00782833,0.77259803,
19.3030,-0.0730,0.3282,1.0988,-0.2131,0.1718,1.4594,-0.1288,0.1155,-0.6495,25.25706167,83.00782833,0.77259803,
19.3530,0.0920,0.3021,1.1047,-0.2131,0.1718,1.4594,-0.1288,0.1155,-0.6495,25.25706167,83.00782833,0.77259803,
19.3670,0.0920,0.3021,1.1047,-0.2131,0.1718,1.4594,-0.1225,-0.7250,-0.2044,25.25706167,83.00782833,0.77259803,
19.3690,0.0920,0.3021,1.1047,1.0971,-0.0410,1.4926,-0.1225,-0.7250,-0.2044,25.25706167,83.00782833,0.77259803,
19.4190,0.0780,0.2271,0.9266,1.0971,-0.0410,1.4926,-0.1225,-0.7250,-0.2044,25.25706167,83.00782833,0.77259803,
19.4350,0.0780,0.2271,0.9266,1.0971,-0.0410,1.4926,-0.4398,-0.7655,-0.2525,25.25706167,83.00782833,0.77259803,
19.4360,0.0780,0.2271,0.9266,0.7443,-0.5603,-1.3906,-0.4398,-0.7655,-0.2525,25.25706167,83.00782833,0.77259803,
19.4850,0.0910,0.2761,0.7274,0.7443,-0.5603,-1.3906,-0.4398,-0.7655,-0.2525,25.25706167,83.00782833,0.77259803,
19.4990,0.0910,0.2761,0.7274,0.7443,-0.5603,-1.3906,0.0914,-0.6931,0.0815,25.25706167,83.00782833,0.77259803,
19.5000,0.0910,0.2761,0.7274,0.1654,0.0407,-2.2805,0.0914,-0.6931,0.0815,25.25706167,83.00782833,0.77259803,
19.5510,0.0800,0.3121,0.8756,0.1654,0.0407,-2.2805,0.0914,-0.6931,0.0815,25.25706167,83.00782833,0.77259803,
19.5690,0.0800,0.3121,0.8756,0.1654,0.0407,-2.2805,0.4896,-0.0467,0.4135,25.25706167,83.00782833,0.77259803,
19.5720,0.0800,0.3121,0.8756,-0.1177,0.0699,-0.7153,0.4896,-0.0467,0.4135,25.25706167,83.00782833,0.77259803,
19.6170,0.0780,0.3522,0.9046,-0.1177,0.0699,-0.7153,0.4896,-0.0467,0.4135,25.25706167,83.00782833,0.77259803,
19.6360,0.0780,0.3522,0.9046,-0.1177,0.0699,-0.7153,0.4359,0.2474,0.4684,25.25706167,83.00782833,0.77259803,
19.6390,0.0780,0.3522,0.9046,-0.3082,0.2719,-0.2343,0.4359,0.2474,0.4684,25.25706167,83.00782833,0.77259803,
19.6840,0.0230,0.3962,0.8226,-0.3082,0.2719,-0.2343,0.4359,0.2474,0.4684,25.25706167,83.00782833,0.77259803,
19.6970,0.0230,0.3962,0.8226,-0.3082,0.2719,-0.2343,0.7097,0.5318,0.4001,25.25706167,83.00782833,0.77259803,
19.6990,0.0230,0.3962,0.8226,-0.4175,0.6542,-1.2888,0.7097,0.5318,0.4001,25.25706167,83.00782833,0.77259803,
19.7520,-0.0080,0.4943,0.9877,-0.4175,0.6542,-1.2888,0.7097,0.5318,0.4001,25.25706167,83.00782833,0.77259803,
19.7630,-0.0080,0.4943,0.9877,-0.4175,0.6542,-1.2888,0.7499,0.5532,0.2656,25.25706167,83.00782833,0.77259803,
19.7640,-0.0080,0.4943,0.9877,-0.4724,0.7404,0.7816,0.7499,0.5532,0.2656,25.25706167,83.00782833,0.77259803,
19.8150,0.0190,0.5003,1.0197,-0.4724,0.7404,0.7816,0.7499,0.5532,0.2656,25.25706167,83.00782833,0.77259803,
19.8330,0.0190,0.5003,1.0197,-0.4724,0.7404,0.7816,0.3010,0.3508,0.1303,25.25706167,83.00782833,0.77259803,
19.8380,0.0190,0.5003,1.0197,0.1346,0.5006,1.8013,0.3010,0.3508,0.1303,25.25706167,83.00782833,0.77259803,
19.8810,0.0670,0.4813,1.0837,0.1346,0.5006,1.8013,0.3010,0.3508,0.1303,25.25706167,83.00782833,0.77259803,
19.8950,0.0670,0.4813,1.0837,0.1346,0.5006,1.8013,-0.2009,-0.0711,0.0753,25.25706167,83.00782833,0.77259803,
19.8960,0.0670,0.4813,1.0837,-0.3851,0.5583,1.8954,-0.2009,-0.0711,0.0753,25.25706167,83.00782833,0.77259803,
19.9460,-0.0119,0.2871,1.1818,-0.3851,0.5583,1.8954,-0.2009,-0.0711,0.0753,25.25706167,83.00782833,0.77259803,
19.9610,-0.0119,0.2871,1.1818,-0.3851,0.5583,1.8954,-1.1050,0.0549,-0.6866,25.25706167,83.00782833,0.77259803,
19.9620,-0.0119,0.2871,1.1818,-0.1514,-0.7946,2.4634,-1.1050,0.0549,-0.6866,25.25706167,83.00782833,0.77259803,
20.0120,0.0200,0.3011,0.8396,-0.1514,-0.7946,2.4634,-1.1050,0.0549,-0.6866,25.25706167,83.00782833,0.77259803,
20.0340,0.0200,0.3011,0.8396,-0.1514,-0.7946,2.4634,-0.4485,-0.1375,-0.0962,25.25706167,83.00782833,0.77259803,
20.0360,0.0200,0.3011,0.8396,0.0232,-0.5382,-0.8624,-0.4485,-0.1375,-0.0962,25.25706167,83.00782833,0.77259803,
20.0780,-0.0450,0.2432,0.9327,0.0232,-0.5382,-0.8624,-0.4485,-0.1375,-0.0962,25.25706167,83.00782833,0.77259803,
20.0930,-0.0450,0.2432,0.9327,0.0232,-0.5382,-0.8624,-0.4959,0.2187,-0.1111,25.25706167,83.00782833,0.77259803,
20.0950,-0.0450,0.2432,0.9327,-0.5217,-0.6819,-0.9587,-0.4959,0.2187,-0.1111,25.25706167,83.00782833,0.77259803,
20.1440,-0.0550,0.2661,0.6735,-0.5217,-0.6819,-0.9587,-0.4959,0.2187,-0.1111,25.25706167,83.00782833,0.77259803,
20.1610,-0.0550,0.2661,0.6735,-0.5217,-0.6819,-0.9587,0.1072,0.4458,0.1204,25.25706167,83.00782833,0.77259803,
20.1640,-0.0550,0.2661,0.6735,0.0198,-0.2114,-3.1587,0.1072,0.4458,0.1204,25.25706167,83.00782833,0.77259803,
20.2100,0.0000,0.3442,0.7395,0.0198,-0.2114,-3.1587,0.1072,0.4458,0.1204,25.25706167,83.00782833,0.77259803,
20.2270,0.0000,0.3442,0.7395,0.0198,-0.2114,-3.1587,0.6757,0.2190,0.5494,25.25706167,83.00782833,0.77259803,
20.2280,0.0000,0.3442,0.7395,0.3238,-0.0582,-1.9338,0.6757,0.2190,0.5494,25.25706167,83.00782833,0.77259803,
20.2780,0.0400,0.3602,0.9106,0.3238,-0.0582,-1.9338,0.6757,0.2190,0.5494,25.25706167,83.00782833,0.77259803,
20.2910,0.0400,0.3602,0.9106,0.3238,-0.0582,-1.9338,0.2051,-0.3026,0.5638,25.25706167,83.00782833,0.77259803,
20.2930,0.0400,0.3602,0.9106,0.4820,-0.1908,0.8728,0.2051,-0.3026,0.5638,25.25706167,83.00782833,0.77259803,
20.3420,-0.0009,0.3162,1.1617,0.4820,-0.1908,0.8728,0.2051,-0.3026,0.5638,25.25706167,83.00782833,0.77259803,
20.3590,-0.0009,0.3162,1.1617,0.4820,-0.1908,0.8728,-0.7344,-0.2111,-0.3238,25.25706167,83.00782833,0.77259803,
20.3600,-0.0009,0.3162,1.1617,-0.1176,-0.3696,1.7410,-0.7344,-0.2111,-0.3238,25.25706167,83.00782833,0.77259803,
20.4090,-0.0009,0.3011,1.1238,-0.1176,-0.3696,1.7410,-0.7344,-0.2111,-0.3238,25.25706167,83.00782833,0.77259803,
20.4260,-0.0009,0.3011,1.1238,-0.1176,-0.3696,1.7410,-0.5862,-0.0032,-0.4111,25.25706167,83.00782833,0.77259803,
20.4270,-0.0009,0.3011,1.1238,-0.0401,0.0501,1.6460,-0.5862,-0.0032,-0.4111,25.25706167,83.00782833,0.77259803,
20.4760,0.0730,0.3221,1.0797,-0.0401,0.0501,1.6460,-0.5862,-0.0032,-0.4111,25.25706167,83.00782833,0.77259803,
20.4890,0.0730,0.3221,1.0797,-0.0401,0.0501,1.6460,-0.1592,-0.2686,-0.1652,25.25706167,83.00782833,0.77259803,
20.4910,0.0730,0.3221,1.0797,0.6165,0.3642,1.1817,-0.1592,-0.2686,-0.1652,25.25706167,83.00782833,0.77259803,
20.5410,0.0310,0.2851,1.0037,0.6165,0.3642,1.1817,-0.1592,-0.2686,-0.1652,25.25706167,83.00782833,0.77259803,
20.5560,0.0310,0.2851,1.0037,0.6165,0.3642,1.1817,-0.1143,-0.1832,-0.0649,25.25706167,83.00782833,0.77259803,
20.5600,0.0310,0.2851,1.0037,-0.3480,-0.1092,0.1115,-0.1143,-0.1832,-0.0649,25.25706167,83.00782833,0.77259803,
20.6070,0.0330,0.2871,0.7776,-0.3480,-0.1092,0.1115,-0.1143,-0.1832,-0.0649,25.25706167,83.00782833,0.77259803,
20.6230,0.0330,0.2871,0.7776,-0.3480,-0.1092,0.1115,0.1791,0.0388,0.0296,25.25706167,83.00782833,0.77259803,
20.6240,0.0330,0.2871,0.7776,0.1054,0.0658,-1.7910,0.1791,0.0388,0.0296,25.25706167,83.00782833,0.77259803,
20.6730,0.0790,0.2861,0.9766,0.1054,0.0658,-1.7910,0.1791,0.0388,0.0296,25.25706167,83.00782833,0.77259803,
20.6900,0.0790,0.2861,0.9766,0.1054,0.0658,-1.7910,0.2023,-0.3056,0.2113,25.25706167,83.00782833,0.77259803,
20.6920,0.0790,0.2861,0.9766,0.3580,-0.1226,0.2211,0.2023,-0.3056,0.2113,25.25706167,83.00782833,0.77259803,
20.7390,0.0820,0.3371,0.7945,0.3580,-0.1226,0.2211,0.2023,-0.3056,0.2113,25.25706167,83.00782833,0.77259803,
20.7540,0.0820,0.3371,0.7945,0.3580,-0.1226,0.2211,0.4793,-0.2552,0.3614,25.25706167,83.00782833,0.77259803,
20.7570,0.0820,0.3371,0.7945,0.1249,0.3266,-1.5850,0.4793,-0.2552,0.3614,25.25706167,83.00782833,0.77259803,
20.8050,0.0519,0.3772,0.8226,0.1249,0.3266,-1.5850,0.4793,-0.2552,0.3614,25.25706167,83.00782833,0.77259803,
20.8300,0.0519,0.3772,0.8226,0.1249,0.3266,-1.5850,0.7387,0.1602,0.4400,25.25706167,83.00782833,0.77259803,
20.8330,0.0519,0.3772,0.8226,-0.2645,0.2344,-0.9643,0.7387,0.1602,0.4400,25.25706167,83.00782833,0.77259803,
20.8910,0.0200,0.4403,0.8846,-0.2645,0.2344,-0.9643,0.7387,0.1602,0.4400,25.25706167,83.00782833,0.77259803,
20.8960,0.0200,0.4403,0.8846,-0.2645,0.2344,-0.9643,0.6672,0.4854,0.2172,25.25706167,83.00782833,0.77259803,
20.9000,0.0200,0.4403,0.8846,-0.3026,0.4361,-0.3239,0.6672,0.4854,0.2172,25.25706167,83.00782833,0.77259803,
20.9420,0.0290,0.4383,1.0778,-0.3026,0.4361,-0.3239,0.6672,0.4854,0.2172,25.25706167,83.00782833,0.77259803,
20.9520,0.0290,0.4383,1.0778,-0.3026,0.4361,-0.3239,-0.0493,0.2524,-0.0788,25.25706167,83.00782833,0.77259803,
20.9530,0.0290,0.4383,1.0778,-0.2527,0.2542,1.9703,-0.0493,0.2524,-0.0788,25.25706500,83.00784167,0.62126970,
21.0020,0.0600,0.4533,0.9577,-0.2527,0.2542,1.9703,-0.0493,0.2524,-0.0788,25.25706500,83.00784167,0.62126970,
21.0200,0.0600,0.4533,0.9577,-0.2527,0.2542,1.9703,0.0180,0.0461,0.1894,25.25706500,83.00784167,0.62126970,
21.0220,0.0600,0.4533,0.9577,0.1212,0.5275,0.4720,0.0180,0.0461,0.1894,25.25706500,83.00784167,0.62126970,
21.0690,-0.0440,0.3182,1.1667,0.1212,0.5275,0.4720,0.0180,0.0461,0.1894,25.25706500,83.00784167,0.62126970,
21.0830,-0.0440,0.3182,1.1667,0.1212,0.5275,0.4720,-0.7630,0.3027,-0.4041,25.25706500,83.00784167,0.62126970,
21.0840,-0.0440,0.3182,1.1667,-0.4145,-0.5263,2.3304,-0.7630,0.3027,-0.4041,25.25706500,83.00784167,0.62126970,
21.1340,0.0000,0.2751,1.1717,-0.4145,-0.5263,2.3304,-0.7630,0.3027,-0.4041,25.25706500,83.00784167,0.62126970,
21.1490,0.0000,0.2751,1.1717,-0.4145,-0.5263,2.3304,-0.9733,-0.0722,-0.0050,25.25706500,83.00784167,0.62126970,
21.1500,0.0000,0.2751,1.1717,-0.0703,-0.4419,1.4292,-0.9733,-0.0722,-0.0050,25.25706500,83.00784167,0.62126970,
21.2000,0.0920,0.2561,1.0087,-0.0703,-0.4419,1.4292,-0.9733,-0.0722,-0.0050,25.25706500,83.00784167,0.62126970,
21.2020,0.0920,0.2561,1.0087,-0.0703,-0.4419,1.4292,-0.9733,-0.0722,-0.0050,25.25706500,83.00784167,0.62126970,
21.2020,0.0920,0.2561,1.0087,-0.0703,-0.4419,1.4292,-0.9733,-0.0722,-0.0050,25.25706500,83.00784167,0.62126970,
21.2030,0.0920,0.2561,1.0087,-0.0703,-0.4419,1.4292,-0.9733,-0.0722,-0.0050,25.25706500,83.00784167,0.62126970,
21.2030,0.0920,0.2561,1.0087,-0.0703,-0.4419,1.4292,-0.9733,-0.0722,-0.0050,25.25706500,83.00784167,0.62126970,
21.2040,0.0920,0.2561,1.0087,-0.0703,-0.4419,1.4292,-0.9733,-0.0722,-0.0050,25.25706500,83.00784167,0.62126970,
21.2100,0.1110,0.2632,0.9887,-0.0703,-0.4419,1.4292,-0.9733,-0.0722,-0.0050,25.25706500,83.00784167,0.62126970,
21.2140,0.1110,0.2632,0.9887,-0.0703,-0.4419,1.4292,-0.5334,-0.2565,0.2575,25.25706500,83.00784167,0.62126970,
21.2150,0.1110,0.2632,0.9887,-0.0703,-0.4419,1.4292,-0.5334,-0.2565,0.2575,25.25706500,83.00784167,0.62126970,
21.2160,0.1110,0.2632,0.9887,-0.0703,-0.4419,1.4292,-0.5334,-0.2565,0.2575,25.25706500,83.00784167,0.62126970,
21.2160,0.1110,0.2632,0.9887,-0.0703,-0.4419,1.4292,-0.5334,-0.2565,0.2575,25.25706500,83.00784167,0.62126970,
21.2170,0.1110,0.2632,0.9887,-0.0703,-0.4419,1.4292,-0.5334,-0.2565,0.2575,25.25706500,83.00784167,0.62126970,
21.2170,0.1110,0.2632,0.9887,-0.0703,-0.4419,1.4292,-0.5334,-0.2565,0.2575,25.25706500,83.00784167,0.62126970,
21.2180,0.1110,0.2632,0.9887,-0.0703,-0.4419,1.4292,-0.5334,-0.2565,0.2575,25.25706500,83.00784167,0.62126970,
21.2200,0.1260,0.2711,0.9556,-0.0703,-0.4419,1.4292,-0.5334,-0.2565,0.2575,25.25706500,83.00784167,0.62126970,
21.2250,0.1260,0.2711,0.9556,-0.0703,-0.4419,1.4292,-0.4322,-0.3420,0.3176,25.25706500,83.00784167,0.62126970,
21.2300,0.1341,0.2732,0.8946,-0.0703,-0.4419,1.4292,-0.4322,-0.3420,0.3176,25.25706500,83.00784167,0.62126970,
21.2350,0.1341,0.2732,0.8946,-0.0703,-0.4419,1.4292,-0.3181,-0.4086,0.4241,25.25706500,83.00784167,0.62126970,
21.2400,0.1170,0.2811,0.8336,-0.0703,-0.4419,1.4292,-0.3181,-0.4086,0.4241,25.25706500,83.00784167,0.62126970,
21.2450,0.1170,0.2811,0.8336,-0.0703,-0.4419,1.4292,-0.1895,-0.4576,0.4751,25.25706500,83.00784167,0.62126970,
21.2510,0.1070,0.2742,0.7915,-0.0703,-0.4419,1.4292,-0.1895,-0.4576,0.4751,25.25706500,83.00784167,0.62126970,
21.2550,0.1070,0.2742,0.7915,-0.0703,-0.4419,1.4292,-0.0635,-0.4639,0.5400,25.25706500,83.00784167,0.62126970,
21.2600,0.0770,0.2682,0.7855,-0.0703,-0.4419,1.4292,-0.0635,-0.4639,0.5400,25.25706500,83.00784167,0.62126970,
21.2640,0.0770,0.2682,0.7855,-0.0703,-0.4419,1.4292,0.0423,-0.4192,0.6011,25.25706500,83.00784167,0.62126970,
21.2650,0.0770,0.2682,0.7855,0.2214,-0.0526,-1.7195,0.0423,-0.4192,0.6011,25.25706500,83.00784167,0.62126970,
21.2710,0.0280,0.2601,0.8226,0.2214,-0.0526,-1.7195,0.0423,-0.4192,0.6011,25.25706500,83.00784167,0.62126970,
21.2750,0.0280,0.2601,0.8226,0.2214,-0.0526,-1.7195,0.1065,-0.2981,0.6424,25.25706500,83.00784167,0.62126970,
21.2800,-0.0430,0.2532,0.8686,0.2214,-0.0526,-1.7195,0.1065,-0.2981,0.6424,25.25706500,83.00784167,0.62126970,
21.2850,-0.0430,0.2532,0.8686,0.2214,-0.0526,-1.7195,0.1159,-0.1103,0.5489,25.25706500,83.00784167,0.62126970,
21.2900,-0.0720,0.2471,0.8936,0.2214,-0.0526,-1.7195,0.1159,-0.1103,0.5489,25.25706500,83.00784167,0.62126970,
21.2940,-0.0720,0.2471,0.8936,0.2214,-0.0526,-1.7195,0.0830,0.0989,0.3590,25.25706500,83.00784167,0.62126970,
21.3010,-0.0550,0.2421,0.9066,0.2214,-0.0526,-1.7195,0.0830,0.0989,0.3590,25.25706500,83.00784167,0.62126970,
21.3050,-0.0550,0.2421,0.9066,0.2214,-0.0526,-1.7195,0.0381,0.2917,0.2485,25.25706500,83.00784167,0.62126970,
21.3100,-0.0269,0.2401,0.9206,0.2214,-0.0526,-1.7195,0.0381,0.2917,0.2485,25.25706500,83.00784167,0.62126970,
21.3140,-0.0269,0.2401,0.9206,0.2214,-0.0526,-1.7195,-0.0154,0.3922,0.1281,25.25706500,83.00784167,0.62126970,
21.3200,-0.0019,0.2441,0.9106,0.2214,-0.0526,-1.7195,-0.0154,0.3922,0.1281,25.25706500,83.00784167,0.62126970,
21.3250,-0.0019,0.2441,0.9106,0.2214,-0.0526,-1.7195,-0.0525,0.4255,0.0985,25.25706500,83.00784167,0.62126970,
21.3260,-0.0019,0.2441,0.9106,-0.3554,-0.2916,-0.5016,-0.0525,0.4255,0.0985,25.25706500,83.00784167,0.62126970,
21.3300,0.0150,0.2501,0.8586,-0.3554,-0.2916,-0.5016,-0.0525,0.4255,0.0985,25.25706500,83.00784167,0.62126970,
21.3350,0.0150,0.2501,0.8586,-0.3554,-0.2916,-0.5016,-0.0544,0.3874,0.0517,25.25706500,83.00784167,0.62126970,
21.3400,0.0219,0.2632,0.8065,-0.3554,-0.2916,-0.5016,-0.0544,0.3874,0.0517,25.25706500,83.00784167,0.62126970,
21.3450,0.0219,0.2632,0.8065,-0.3554,-0.2916,-0.5016,-0.0059,0.3260,0.0308,25.25706500,83.00784167,0.62126970,
21.3510,0.0200,0.2751,0.7665,-0.3554,-0.2916,-0.5016,-0.0059,0.3260,0.0308,25.25706500,83.00784167,0.62126970,
21.3550,0.0200,0.2751,0.7665,-0.3554,-0.2916,-0.5016,0.0840,0.2779,0.0741,25.25706500,83.00784167,0.62126970,
21.3600,0.0200,0.2832,0.7505,-0.3554,-0.2916,-0.5016,0.0840,0.2779,0.0741,25.25706500,83.00784167,0.62126970,
21.3660,0.0200,0.2832,0.7505,-0.3554,-0.2916,-0.5016,0.1876,0.2398,0.1238,25.25706500,83.00784167,0.62126970,
21.3700,0.0109,0.2882,0.7515,-0.3554,-0.2916,-0.5016,0.1876,0.2398,0.1238,25.25706500,83.00784167,0.62126970,
21.3750,0.0109,0.2882,0.7515,-0.3554,-0.2916,-0.5016,0.2876,0.2113,0.1356,25.25706500,83.00784167,0.62126970,
21.3800,0.0080,0.2842,0.7645,-0.3554,-0.2916,-0.5016,0.2876,0.2113,0.1356,25.25706500,83.00784167,0.62126970,
21.3850,0.0080,0.2842,0.7645,-0.3554,-0.2916,-0.5016,0.3589,0.2105,0.1835,25.25706500,83.00784167,0.62126970,
21.3870,0.0080,0.2842,0.7645,-0.1560,-0.0545,-1.8911,0.3589,0.2105,0.1835,25.25706500,83.00784167,0.62126970,
21.3900,0.0100,0.2832,0.7715,-0.1560,-0.0545,-1.8911,0.3589,0.2105,0.1835,25.25706500,83.00784167,0.62126970,
21.3940,0.0100,0.2832,0.7715,-0.1560,-0.0545,-1.8911,0.4004,0.2094,0.2096,25.25706500,83.00784167,0.62126970,
21.4000,0.0040,0.2821,0.7755,-0.1560,-0.0545,-1.8911,0.4004,0.2094,0.2096,25.25706500,83.00784167,0.62126970,
21.4070,0.0040,0.2821,0.7755,-0.1560,-0.0545,-1.8911,0.4162,0.1868,0.1406,25.25706500,83.00784167,0.62126970,
21.4100,-0.0050,0.2832,0.8065,-0.1560,-0.0545,-1.8911,0.4162,0.1868,0.1406,25.25706500,83.00784167,0.62126970,
21.4150,-0.0050,0.2832,0.8065,-0.1560,-0.0545,-1.8911,0.4064,0.1880,0.0889,25.25706500,83.00784167,0.62126970,
21.4200,-0.0130,0.2932,0.8496,-0.1560,-0.0545,-1.8911,0.4064,0.1880,0.0889,25.25706500,83.00784167,0.62126970,
21.4250,-0.0130,0.2932,0.8496,-0.1560,-0.0545,-1.8911,0.3790,0.2139,0.0736,25.25706500,83.00784167,0.62126970,
21.4300,-0.0050,0.3002,0.8876,-0.1560,-0.0545,-1.8911,0.3790,0.2139,0.0736,25.25706500,83.00784167,0.62126970,
21.4350,-0.0050,0.3002,0.8876,-0.1560,-0.0545,-1.8911,0.3378,0.1971,-0.0359,25.25706500,83.00784167,0.62126970,
21.4400,0.0119,0.3052,0.9277,-0.1560,-0.0545,-1.8911,0.3378,0.1971,-0.0359,25.25706500,83.00784167,0.62126970,
21.4450,0.0119,0.3052,0.9277,-0.1560,-0.0545,-1.8911,0.2835,0.1645,-0.0717,25.25706500,83.00784167,0.62126970,
21.4460,0.0119,0.3052,0.9277,-0.0129,-0.0454,-0.2320,0.2835,0.1645,-0.0717,25.25706500,83.00784167,0.62126970,
21.4500,0.0300,0.3092,0.9516,-0.0129,-0.0454,-0.2320,0.2835,0.1645,-0.0717,25.25706500,83.00784167,0.62126970,
21.4550,0.0300,0.3092,0.9516,-0.0129,-0.0454,-0.2320,0.2261,0.1203,-0.0344,25.25706500,83.00784167,0.62126970,
21.4600,0.0530,0.3152,0.9556,-0.0129,-0.0454,-0.2320,0.2261,0.1203,-0.0344,25.25706500,83.00784167,0.62126970,
21.4650,0.0530,0.3152,0.9556,-0.0129,-0.0454,-0.2320,0.1795,0.0464,0.0130,25.25706500,83.00784167,0.62126970,
21.4700,0.0730,0.3212,0.9456,-0.0129,-0.0454,-0.2320,0.1795,0.0464,0.0130,25.25706500,83.00784167,0.62126970,
21.4750,0.0730,0.3212,0.9456,-0.0129,-0.0454,-0.2320,0.1531,-0.0557,0.0683,25.25706500,83.00784167,0.62126970,
21.4810,0.0850,0.3262,0.9086,-0.0129,-0.0454,-0.2320,0.1531,-0.0557,0.0683,25.25706500,83.00784167,0.62126970,
21.4850,0.0850,0.3262,0.9086,-0.0129,-0.0454,-0.2320,0.1568,-0.1957,0.0365,25.25706500,83.00784167,0.62126970,
21.4900,0.0810,0.3371,0.8736,-0.0129,-0.0454,-0.2320,0.1568,-0.1957,0.0365,25.25706500,83.00784167,0.62126970,
21.4940,0.0810,0.3371,0.8736,-0.0129,-0.0454,-0.2320,0.1957,-0.3162,-0.0209,25.25706500,83.00784167,0.62126970,
21.5000,0.0640,0.3462,0.8536,-0.0129,-0.0454,-0.2320,0.1957,-0.3162,-0.0209,25.25706500,83.00784167,0.62126970,
21.5050,0.0640,0.3462,0.8536,-0.0129,-0.0454,-0.2320,0.2625,-0.3403,0.0520,25.25706500,83.00784167,0.62126970,
21.5060,0.0640,0.3462,0.8536,0.3298,0.2467,-0.9179,0.2625,-0.3403,0.0520,25.25706500,83.00784167,0.62126970,
21.5100,0.0469,0.3522,0.8626,0.3298,0.2467,-0.9179,0.2625,-0.3403,0.0520,25.25706500,83.00784167,0.62126970,
21.5150,0.0469,0.3522,0.8626,0.3298,0.2467,-0.9179,0.3299,-0.3244,0.0725,25.25706500,83.00784167,0.62126970,
21.5200,0.0159,0.3592,0.9086,0.3298,0.2467,-0.9179,0.3299,-0.3244,0.0725,25.25706500,83.00784167,0.62126970,
21.5250,0.0159,0.3592,0.9086,0.3298,0.2467,-0.9179,0.3672,-0.2312,0.1219,25.25706500,83.00784167,0.62126970,
21.5310,-0.0230,0.3742,0.9737,0.3298,0.2467,-0.9179,0.3672,-0.2312,0.1219,25.25706500,83.00784167,0.62126970,
21.5350,-0.0230,0.3742,0.9737,0.3298,0.2467,-0.9179,0.3695,-0.1187,0.0280,25.25706500,83.00784167,0.62126970,
21.5400,-0.0650,0.3942,1.0487,0.3298,0.2467,-0.9179,0.3695,-0.1187,0.0280,25.25706500,83.00784167,0.62126970,
21.5450,-0.0650,0.3942,1.0487,0.3298,0.2467,-0.9179,0.3443,0.0261,-0.1532,25.25706500,83.00784167,0.62126970,
21.5500,-0.0530,0.4002,1.0988,0.3298,0.2467,-0.9179,0.3443,0.0261,-0.1532,25.25706500,83.00784167,0.62126970,
21.5550,-0.0530,0.4002,1.0988,0.3298,0.2467,-0.9179,0.2953,0.1630,-0.2790,25.25706500,83.00784167,0.62126970,
21.5600,0.0130,0.3933,1.0988,0.3298,0.2467,-0.9179,0.2953,0.1630,-0.2790,25.25706500,83.00784167,0.62126970,
21.5650,0.0130,0.3933,1.0988,0.3298,0.2467,-0.9179,0.2346,0.1818,-0.3542,25.25706500,83.00784167,0.62126970,
21.5660,0.0130,0.3933,1.0988,-0.0651,0.5300,1.5444,0.2346,0.1818,-0.3542,25.25706500,83.00784167,0.62126970,
21.5720,0.0910,0.3972,1.0757,-0.0651,0.5300,1.5444,0.2346,0.1818,-0.3542,25.25706500,83.00784167,0.62126970,
21.5750,0.0910,0.3972,1.0757,-0.0651,0.5300,1.5444,0.1887,0.0618,-0.3578,25.25706500,83.00784167,0.62126970,
21.5810,0.1451,0.4112,1.0307,-0.0651,0.5300,1.5444,0.1887,0.0618,-0.3578,25.25706500,83.00784167,0.62126970,
21.5850,0.1451,0.4112,1.0307,-0.0651,0.5300,1.5444,0.1888,-0.1444,-0.2902,25.25706500,83.00784167,0.62126970,
21.5900,0.1831,0.4343,0.9677,-0.0651,0.5300,1.5444,0.1888,-0.1444,-0.2902,25.25706500,83.00784167,0.62126970,
21.5940,0.1831,0.4343,0.9677,-0.0651,0.5300,1.5444,0.2584,-0.3541,-0.0874,25.25706500,83.00784167,0.62126970,
21.6000,0.2211,0.4362,0.9096,-0.0651,0.5300,1.5444,0.2584,-0.3541,-0.0874,25.25706500,83.00784167,0.62126970,
21.6060,0.2211,0.4362,0.9096,-0.0651,0.5300,1.5444,0.3636,-0.5826,0.0977,25.25706500,83.00784167,0.62126970,
21.6100,0.2382,0.4343,0.8836,-0.0651,0.5300,1.5444,0.3636,-0.5826,0.0977,25.25706500,83.00784167,0.62126970,
21.6150,0.2382,0.4343,0.8836,-0.0651,0.5300,1.5444,0.4708,-0.8081,0.2161,25.25706500,83.00784167,0.62126970,
21.6200,0.2241,0.4372,0.8936,-0.0651,0.5300,1.5444,0.4708,-0.8081,0.2161,25.25706500,83.00784167,0.62126970,
21.6240,0.2241,0.4372,0.8936,-0.0651,0.5300,1.5444,0.5567,-0.9329,0.3808,25.25706500,83.00784167,0.62126970,
21.6250,0.2241,0.4372,0.8936,1.5125,0.7242,-0.3538,0.5567,-0.9329,0.3808,25.25706500,83.00784167,0.62126970,
21.6300,0.1851,0.4202,0.9456,1.5125,0.7242,-0.3538,0.5567,-0.9329,0.3808,25.25706500,83.00784167,0.62126970,
21.6350,0.1851,0.4202,0.9456,1.5125,0.7242,-0.3538,0.5675,-0.9725,0.4272,25.25706500,83.00784167,0.62126970,
21.6400,0.1200,0.4002,1.0057,1.5125,0.7242,-0.3538,0.5675,-0.9725,0.4272,25.25706500,83.00784167,0.62126970,
21.6450,0.1200,0.4002,1.0057,1.5125,0.7242,-0.3538,0.4864,-0.9119,0.3302,25.25706500,83.00784167,0.62126970,
21.6500,0.0540,0.3822,1.0657,1.5125,0.7242,-0.3538,0.4864,-0.9119,0.3302,25.25706500,83.00784167,0.62126970,
21.6550,0.0540,0.3822,1.0657,1.5125,0.7242,-0.3538,0.3266,-0.7456,0.1315,25.25706500,83.00784167,0.62126970,
21.6600,-0.0040,0.3612,1.1017,1.5125,0.7242,-0.3538,0.3266,-0.7456,0.1315,25.25706500,83.00784167,0.62126970,
21.6650,-0.0040,0.3612,1.1017,1.5125,0.7242,-0.3538,0.1329,-0.4823,-0.0570,25.25706500,83.00784167,0.62126970,
21.6700,-0.0540,0.3462,1.1378,1.5125,0.7242,-0.3538,0.1329,-0.4823,-0.0570,25.25706500,83.00784167,0.62126970,
21.6750,-0.0540,0.3462,1.1378,1.5125,0.7242,-0.3538,-0.0904,-0.2381,-0.4020,25.25706500,83.00784167,0.62126970,
21.6810,-0.0940,0.3402,1.1388,1.5125,0.7242,-0.3538,-0.0904,-0.2381,-0.4020,25.25706500,83.00784167,0.62126970,
21.6850,-0.0940,0.3402,1.1388,1.5125,0.7242,-0.3538,-0.2760,0.0536,-0.6294,25.25706500,83.00784167,0.62126970,
21.6860,-0.0940,0.3402,1.1388,-1.6569,-0.2055,2.0441,-0.2760,0.0536,-0.6294,25.25706500,83.00784167,0.62126970,
21.6900,-0.1220,0.3412,1.1188,-1.6569,-0.2055,2.0441,-0.2760,0.0536,-0.6294,25.25706500,83.00784167,0.62126970,
21.6960,-0.1220,0.3412,1.1188,-1.6569,-0.2055,2.0441,-0.4045,0.3240,-0.8243,25.25706500,83.00784167,0.62126970,
21.7000,-0.1250,0.3371,1.0728,-1.6569,-0.2055,2.0441,-0.4045,0.3240,-0.8243,25.25706500,83.00784167,0.62126970,
21.7060,-0.1250,0.3371,1.0728,-1.6569,-0.2055,2.0441,-0.4702,0.5445,-0.9423,25.25706500,83.00784167,0.62126970,
21.7100,-0.1191,0.3452,1.0116,-1.6569,-0.2055,2.0441,-0.4702,0.5445,-0.9423,25.25706500,83.00784167,0.62126970,
21.7150,-0.1191,0.3452,1.0116,-1.6569,-0.2055,2.0441,-0.4638,0.6928,-1.0096,25.25706500,83.00784167,0.62126970,
21.7200,-0.1000,0.3552,0.9477,-1.6569,-0.2055,2.0441,-0.4638,0.6928,-1.0096,25.25706500,83.00784167,0.62126970,
21.7240,-0.1000,0.3552,0.9477,-1.6569,-0.2055,2.0441,-0.3900,0.7685,-1.0142,25.25706500,83.00784167,0.62126970,
21.7300,-0.0810,0.3662,0.8976,-1.6569,-0.2055,2.0441,-0.3900,0.7685,-1.0142,25.25706500,83.00784167,0.62126970,
21.7350,-0.0810,0.3662,0.8976,-1.6569,-0.2055,2.0441,-0.2674,0.7819,-0.9605,25.25706500,83.00784167,0.62126970,
21.7400,-0.0680,0.3733,0.8706,-1.6569,-0.2055,2.0441,-0.2674,0.7819,-0.9605,25.25706500,83.00784167,0.62126970,
21.7460,-0.0680,0.3733,0.8706,-1.6569,-0.2055,2.0441,-0.1275,0.7639,-0.8427,25.25706500,83.00784167,0.62126970,
21.7480,-0.0680,0.3733,0.8706,-0.7247,0.2606,-0.6671,-0.1275,0.7639,-0.8427,25.25706500,83.00784167,0.62126970,
21.7500,-0.0710,0.3702,0.8586,-0.7247,0.2606,-0.6671,-0.1275,0.7639,-0.8427,25.25706500,83.00784167,0.62126970,
21.7550,-0.0710,0.3702,0.8586,-0.7247,0.2606,-0.6671,-0.0025,0.7341,-0.7178,25.25706500,83.00784167,0.62126970,
21.7600,-0.0770,0.3692,0.8376,-0.7247,0.2606,-0.6671,-0.0025,0.7341,-0.7178,25.25706500,83.00784167,0.62126970,
21.7650,-0.0770,0.3692,0.8376,-0.7247,0.2606,-0.6671,0.1034,0.7252,-0.5577,25.25706500,83.00784167,0.62126970,
21.7700,-0.0670,0.3672,0.8346,-0.7247,0.2606,-0.6671,0.1034,0.7252,-0.5577,25.25706500,83.00784167,0.62126970,
21.7750,-0.0670,0.3672,0.8346,-0.7247,0.2606,-0.6671,0.1850,0.7222,-0.3750,25.25706500,83.00784167,0.62126970,
