time,gFx,gFy,gFz,ax,ay,az,wx,wy,wz,P
0.003,-0.12,0.50,0.83,0.69,1.54,-0.85,1.20,0.04,-0.14,0.00
0.005,-0.12,0.50,0.83,-0.83,0.28,0.33,1.20,0.04,-0.14,0.00
0.028,0.08,0.40,1.24,-0.83,0.28,0.33,1.20,0.04,-0.14,0.00
0.06,0.08,0.40,1.24,-0.83,0.28,0.33,-2.03,-0.62,6.67,0.00
0.062,0.08,0.40,1.24,8.63,-3.51,3.46,-2.03,-0.62,6.67,0.00
0.091,0.04,-0.18,0.62,8.63,-3.51,3.46,-2.03,-0.62,6.67,0.00
0.124,0.04,-0.18,0.62,8.63,-3.51,3.46,-0.59,-0.79,5.30,0.00
0.125,0.04,-0.18,0.62,-10.45,4.63,6.15,-0.59,-0.79,5.30,0.00
0.158,-0.39,0.19,1.47,-10.45,4.63,6.15,-0.59,-0.79,5.30,0.00
0.189,-0.39,0.19,1.47,-10.45,4.63,6.15,-0.26,-0.79,2.02,0.00
0.19,-0.39,0.19,1.47,-3.62,1.80,2.78,-0.26,-0.79,2.02,0.00
0.221,-0.42,0.08,1.31,-3.62,1.80,2.78,-0.26,-0.79,2.02,0.00
0.267,-0.42,0.08,1.31,-3.62,1.80,2.78,-0.62,0.17,-1.99,0.00
0.269,-0.42,0.08,1.31,-0.94,-2.04,1.62,-0.62,0.17,-1.99,0.00
0.289,-0.23,0.06,0.94,-0.94,-2.04,1.62,-0.62,0.17,-1.99,0.00
0.323,-0.23,0.06,0.94,-0.94,-2.04,1.62,-1.05,-0.54,0.16,0.00
0.324,-0.23,0.06,0.94,2.22,-0.13,0.45,-1.05,-0.54,0.16,0.00
0.36,-0.12,0.11,0.94,2.22,-0.13,0.45,-1.05,-0.54,0.16,0.00
0.387,-0.12,0.11,0.94,2.22,-0.13,0.45,-0.62,-0.69,1.67,0.00
0.388,-0.12,0.11,0.94,0.98,-0.10,-2.90,-0.62,-0.69,1.67,0.00
0.419,-0.11,0.08,0.61,0.98,-0.10,-2.90,-0.62,-0.69,1.67,0.00
0.46,-0.11,0.08,0.61,0.98,-0.10,-2.90,-0.29,-0.38,-2.10,0.00
0.462,-0.11,0.08,0.61,0.60,-1.77,-4.38,-0.29,-0.38,-2.10,0.00
0.486,-0.53,-0.11,0.53,0.60,-1.77,-4.38,-0.29,-0.38,-2.10,0.00
0.521,-0.53,-0.11,0.53,0.60,-1.77,-4.38,1.93,2.38,-11.28,0.00
0.523,-0.53,-0.11,0.53,-2.39,-0.89,-2.16,1.93,2.38,-11.28,0.00
0.559,-0.66,-0.01,0.90,-2.39,-0.89,-2.16,1.93,2.38,-11.28,0.00
0.585,-0.66,-0.01,0.90,-2.39,-0.89,-2.16,1.06,1.83,-1.72,0.00
0.587,-0.66,-0.01,0.90,1.26,1.36,1.80,1.06,1.83,-1.72,0.00
0.617,-0.21,0.19,1.06,1.26,1.36,1.80,1.06,1.83,-1.72,0.00
0.658,-0.21,0.19,1.06,1.26,1.36,1.80,0.09,-2.21,2.93,0.00
0.659,-0.21,0.19,1.06,2.77,1.72,3.20,0.09,-2.21,2.93,0.00
0.683,-0.06,0.22,1.06,2.77,1.72,3.20,0.09,-2.21,2.93,0.00
0.719,-0.06,0.22,1.06,2.77,1.72,3.20,0.20,-2.25,2.69,0.00
0.721,-0.06,0.22,1.06,5.06,1.55,-0.02,0.20,-2.25,2.69,0.00
0.757,-0.01,0.36,1.20,5.06,1.55,-0.02,0.20,-2.25,2.69,0.00
0.783,-0.01,0.36,1.20,5.06,1.55,-0.02,0.68,-1.12,3.11,0.00
0.784,-0.01,0.36,1.20,-0.69,1.30,2.80,0.68,-1.12,3.11,0.00
0.815,-0.00,0.40,1.18,-0.69,1.30,2.80,0.68,-1.12,3.11,0.00
0.856,-0.00,0.40,1.18,-0.69,1.30,2.80,0.48,-0.10,2.06,0.00
0.858,-0.00,0.40,1.18,0.41,0.71,2.57,0.48,-0.10,2.06,0.00
0.881,-0.09,0.21,1.37,0.41,0.71,2.57,0.48,-0.10,2.06,0.00
0.916,-0.09,0.21,1.37,0.41,0.71,2.57,-0.41,0.17,-0.34,0.00
0.918,-0.09,0.21,1.37,-0.75,0.21,-0.84,-0.41,0.17,-0.34,0.00
0.951,-0.15,0.30,0.79,-0.75,0.21,-0.84,-0.41,0.17,-0.34,0.00
0.981,-0.15,0.30,0.79,-0.75,0.21,-0.84,0.49,0.59,-0.45,0.00
0.982,-0.15,0.30,0.79,-0.56,0.42,-1.42,0.49,0.59,-0.45,0.00
1.013,-0.05,0.31,0.77,-0.56,0.42,-1.42,0.49,0.59,-0.45,0.00
1.047,-0.05,0.31,0.77,-0.56,0.42,-1.42,0.57,0.14,0.81,0.00
1.048,-0.05,0.31,0.77,1.05,-0.05,-1.70,0.57,0.14,0.81,0.00
1.079,0.02,0.27,0.71,1.05,-0.05,-1.70,0.57,0.14,0.81,0.00
1.114,0.02,0.27,0.71,1.05,-0.05,-1.70,0.41,-0.25,1.05,0.00
1.116,0.02,0.27,0.71,0.50,-0.56,-2.82,0.41,-0.25,1.05,0.00
1.145,-0.03,0.33,0.62,0.50,-0.56,-2.82,0.41,-0.25,1.05,0.00
1.179,-0.03,0.33,0.62,0.50,-0.56,-2.82,0.79,-0.12,0.30,0.00
1.181,-0.03,0.33,0.62,-0.24,-0.25,-2.49,0.79,-0.12,0.30,0.00
1.211,-0.10,0.38,0.80,-0.24,-0.25,-2.49,0.79,-0.12,0.30,0.00
1.245,-0.10,0.38,0.80,-0.24,-0.25,-2.49,0.45,0.12,-1.04,0.00
1.246,-0.10,0.38,0.80,-0.60,-0.18,-0.17,0.45,0.12,-1.04,0.00
1.277,0.00,0.39,1.04,-0.60,-0.18,-0.17,0.45,0.12,-1.04,0.00
1.313,0.00,0.39,1.04,-0.60,-0.18,-0.17,-0.52,-0.50,-0.16,0.00
1.314,0.00,0.39,1.04,0.89,-0.43,3.12,-0.52,-0.50,-0.16,0.00
1.343,0.04,0.33,1.16,0.89,-0.43,3.12,-0.52,-0.50,-0.16,0.00
1.377,0.04,0.33,1.16,0.89,-0.43,3.12,-0.75,-0.64,-0.17,0.00
1.379,0.04,0.33,1.16,0.61,0.31,1.01,-0.75,-0.64,-0.17,0.00
1.409,0.23,0.35,0.96,0.61,0.31,1.01,-0.75,-0.64,-0.17,0.00
1.443,0.23,0.35,0.96,0.61,0.31,1.01,-0.09,-0.72,2.32,0.00
1.444,0.23,0.35,0.96,2.34,-0.39,0.84,-0.09,-0.72,2.32,0.00
1.475,0.38,0.15,1.37,2.34,-0.39,0.84,-0.09,-0.72,2.32,0.00
1.51,0.38,0.15,1.37,2.34,-0.39,0.84,-1.09,-0.88,2.24,0.00
1.512,0.38,0.15,1.37,1.58,-0.83,3.28,-1.09,-0.88,2.24,0.00
1.541,0.24,0.23,0.88,1.58,-0.83,3.28,-1.09,-0.88,2.24,0.00
1.579,0.24,0.23,0.88,1.58,-0.83,3.28,-0.00,-0.40,0.93,0.00
1.58,0.24,0.23,0.88,0.08,0.05,-0.58,-0.00,-0.40,0.93,0.00
1.607,0.23,0.23,0.84,0.08,0.05,-0.58,-0.00,-0.40,0.93,0.00
1.641,0.23,0.23,0.84,0.08,0.05,-0.58,0.23,-0.27,0.15,0.00
1.643,0.23,0.23,0.84,-0.03,0.31,-1.32,0.23,-0.27,0.15,0.00
1.678,0.21,0.28,0.76,-0.03,0.31,-1.32,0.23,-0.27,0.15,0.00
1.708,0.21,0.28,0.76,-0.03,0.31,-1.32,0.66,-0.18,-0.15,0.00
1.71,0.21,0.28,0.76,-0.39,0.19,-1.78,0.66,-0.18,-0.15,0.00
1.739,0.15,0.29,0.72,-0.39,0.19,-1.78,0.66,-0.18,-0.15,0.00
1.775,0.15,0.29,0.72,-0.39,0.19,-1.78,0.52,-0.02,-1.54,0.00
1.777,0.15,0.29,0.72,-1.24,0.24,-2.12,0.52,-0.02,-1.54,0.00
1.805,0.07,0.37,0.82,-1.24,0.24,-2.12,0.52,-0.02,-1.54,0.00
1.839,0.07,0.37,0.82,-1.24,0.24,-2.12,0.32,0.14,-2.33,0.00
1.84,0.07,0.37,0.82,-0.99,-0.01,0.29,0.32,0.14,-2.33,0.00
1.877,0.11,0.33,1.25,-0.99,-0.01,0.29,0.32,0.14,-2.33,0.00
1.906,0.11,0.33,1.25,-0.99,-0.01,0.29,-1.13,-0.26,-2.69,0.00
1.908,0.11,0.33,1.25,0.02,0.01,3.29,-1.13,-0.26,-2.69,0.00
1.937,0.03,0.40,1.18,0.02,0.01,3.29,-1.13,-0.26,-2.69,0.00
1.975,0.03,0.40,1.18,0.02,0.01,3.29,-0.32,0.15,-1.87,0.00
1.976,0.03,0.40,1.18,-0.85,1.14,2.07,-0.32,0.15,-1.87,0.00
2.004,0.00,0.36,1.18,-0.85,1.14,2.07,-0.32,0.15,-1.87,0.00
2.037,0.00,0.36,1.18,-0.85,1.14,2.07,-0.58,0.12,-1.70,0.00
2.038,0.00,0.36,1.18,-0.77,-0.73,3.09,-0.58,0.12,-1.70,0.00
2.076,-0.12,0.23,1.04,-0.77,-0.73,3.09,-0.58,0.12,-1.70,0.00
2.104,-0.12,0.23,1.04,-0.77,-0.73,3.09,-0.49,0.34,-1.87,0.00
2.106,-0.12,0.23,1.04,-0.97,0.01,-0.16,-0.49,0.34,-1.87,0.00
2.135,-0.12,0.27,1.07,-0.97,0.01,-0.16,-0.49,0.34,-1.87,0.00
2.172,-0.12,0.27,1.07,-0.97,0.01,-0.16,-0.10,0.33,-1.11,0.00
2.174,-0.12,0.27,1.07,-0.37,0.22,1.18,-0.10,0.33,-1.11,0.00
2.201,-0.00,0.29,0.87,-0.37,0.22,1.18,-0.10,0.33,-1.11,0.00
2.235,-0.00,0.29,0.87,-0.37,0.22,1.18,0.35,-0.28,0.62,0.00
2.236,-0.00,0.29,0.87,1.17,0.06,-1.74,0.35,-0.28,0.62,0.00
2.271,-0.04,0.25,0.81,1.17,0.06,-1.74,0.35,-0.28,0.62,0.00
2.303,-0.04,0.25,0.81,1.17,0.06,-1.74,0.26,-0.20,0.11,0.00
2.304,-0.04,0.25,0.81,-0.26,-0.39,-1.79,0.26,-0.20,0.11,0.00
2.333,-0.02,0.28,0.65,-0.26,-0.39,-1.79,0.26,-0.20,0.11,0.00
2.37,-0.02,0.28,0.65,-0.26,-0.39,-1.79,0.69,0.09,0.35,0.00
2.372,-0.02,0.28,0.65,0.23,-0.12,-3.00,0.69,0.09,0.35,0.00
2.399,-0.04,0.37,0.71,0.23,-0.12,-3.00,0.69,0.09,0.35,0.00
2.433,-0.04,0.37,0.71,0.23,-0.12,-3.00,0.94,0.26,0.60,0.00
2.434,-0.04,0.37,0.71,0.55,0.16,-0.51,0.94,0.26,0.60,0.00
2.469,0.05,0.40,0.96,0.55,0.16,-0.51,0.94,0.26,0.60,0.00
2.5,0.05,0.40,0.96,0.55,0.16,-0.51,0.04,-0.31,-0.24,0.00
2.502,0.05,0.40,0.96,-0.46,0.01,1.49,0.04,-0.31,-0.24,0.00
2.531,-0.02,0.39,1.11,-0.46,0.01,1.49,0.04,-0.31,-0.24,0.00
2.569,-0.02,0.39,1.11,-0.46,0.01,1.49,-0.35,-0.27,-0.81,0.00
2.571,-0.02,0.39,1.11,0.12,0.21,1.08,-0.35,-0.27,-0.81,0.00
2.597,0.14,0.31,1.22,0.12,0.21,1.08,-0.35,-0.27,-0.81,0.00
2.631,0.14,0.31,1.22,0.12,0.21,1.08,-1.15,-1.13,-0.34,0.00
2.633,0.14,0.31,1.22,2.02,-0.95,5.04,-1.15,-1.13,-0.34,0.00
2.675,0.19,0.18,1.34,2.02,-0.95,5.04,-1.15,-1.13,-0.34,0.00
2.7,0.19,0.18,1.34,2.02,-0.95,5.04,-0.92,-0.86,-0.38,0.00
2.702,0.19,0.18,1.34,0.28,0.38,-1.12,-0.92,-0.86,-0.38,0.00
2.729,0.16,0.26,0.80,0.28,0.38,-1.12,-0.92,-0.86,-0.38,0.00
2.767,0.16,0.26,0.80,0.28,0.38,-1.12,0.35,-0.31,1.06,0.00
2.768,0.16,0.26,0.80,0.29,-0.11,-1.31,0.35,-0.31,1.06,0.00
2.795,0.09,0.27,0.71,0.29,-0.11,-1.31,0.35,-0.31,1.06,0.00
2.829,0.09,0.27,0.71,0.29,-0.11,-1.31,0.80,0.12,0.92,0.00
2.83,0.09,0.27,0.71,-0.37,0.24,-2.68,0.80,0.12,0.92,0.00
2.865,0.12,0.32,0.74,-0.37,0.24,-2.68,0.80,0.12,0.92,0.00
2.896,0.12,0.32,0.74,-0.37,0.24,-2.68,0.93,0.26,0.69,0.00
2.898,0.12,0.32,0.74,-0.52,0.04,-1.34,0.93,0.26,0.69,0.00
2.927,0.03,0.37,0.81,-0.52,0.04,-1.34,0.93,0.26,0.69,0.00
2.965,0.03,0.37,0.81,-0.52,0.04,-1.34,0.56,0.43,-0.46,0.00
2.966,0.03,0.37,0.81,-0.85,0.09,-0.37,0.56,0.43,-0.46,0.00
2.993,0.10,0.39,0.97,-0.85,0.09,-0.37,0.56,0.43,-0.46,0.00
3.027,0.10,0.39,0.97,-0.85,0.09,-0.37,-0.01,-0.07,-0.65,0.00
3.028,0.10,0.39,0.97,0.12,0.06,0.38,-0.01,-0.07,-0.65,0.00
3.063,0.02,0.39,1.03,0.12,0.06,0.38,-0.01,-0.07,-0.65,0.00
3.094,0.02,0.39,1.03,0.12,0.06,0.38,-0.15,0.01,-0.57,0.00
3.096,0.02,0.39,1.03,-0.11,0.30,1.87,-0.15,0.01,-0.57,0.00
3.125,0.06,0.44,1.11,-0.11,0.30,1.87,-0.15,0.01,-0.57,0.00
3.199,0.06,0.44,1.11,-0.11,0.30,1.87,0.26,0.17,0.29,0.00
3.207,0.06,0.44,1.11,0.11,1.22,-0.35,0.26,0.17,0.29,0.00
3.208,0.03,0.43,0.96,0.11,1.22,-0.35,0.26,0.17,0.29,0.00
3.225,0.03,0.43,0.96,0.11,1.22,-0.35,-0.04,0.20,-0.02,0.00
3.226,0.03,0.43,0.96,-0.46,-0.42,2.38,-0.04,0.20,-0.02,0.00
3.298,-0.05,0.32,1.09,-0.46,-0.42,2.38,-0.04,0.20,-0.02,0.00
3.314,-0.05,0.32,1.09,-0.46,-0.42,2.38,-0.68,0.17,-0.92,0.00
3.314,-0.05,0.32,1.09,-0.62,0.32,-1.74,-0.68,0.17,-0.92,0.00
3.326,-0.04,0.40,0.76,-0.62,0.32,-1.74,-0.68,0.17,-0.92,0.00
3.36,-0.04,0.40,0.76,-0.62,0.32,-1.74,0.14,0.52,0.04,0.00
3.361,-0.04,0.40,0.76,-0.87,-0.23,0.66,0.14,0.52,0.04,0.00
3.389,-0.13,0.30,0.90,-0.87,-0.23,0.66,0.14,0.52,0.04,0.00
3.423,-0.13,0.30,0.90,-0.87,-0.23,0.66,-0.10,0.45,-0.36,0.00
3.424,-0.13,0.30,0.90,0.05,-0.37,-1.96,-0.10,0.45,-0.36,0.00
3.455,0.05,0.30,0.65,0.05,-0.37,-1.96,-0.10,0.45,-0.36,0.00
3.509,0.05,0.30,0.65,0.05,-0.37,-1.96,0.22,-0.13,0.84,0.00
3.511,0.05,0.30,0.65,0.57,-0.71,-1.94,0.22,-0.13,0.84,0.00
3.53,-0.15,0.29,0.89,0.57,-0.71,-1.94,0.22,-0.13,0.84,0.00
3.555,-0.15,0.29,0.89,0.57,-0.71,-1.94,-0.27,0.40,-0.87,0.00
3.556,-0.15,0.29,0.89,-0.80,-0.40,-1.11,-0.27,0.40,-0.87,0.00
3.628,-0.11,0.29,0.80,-0.80,-0.40,-1.11,-0.27,0.40,-0.87,0.00
3.637,-0.11,0.29,0.80,-0.80,-0.40,-1.11,0.05,0.27,0.13,0.00
3.637,-0.11,0.29,0.80,0.46,0.18,-0.65,0.05,0.27,0.13,0.00
3.657,0.01,0.36,1.10,0.46,0.18,-0.65,0.05,0.27,0.13,0.00
3.693,0.01,0.36,1.10,0.46,0.18,-0.65,-0.25,-0.30,0.85,0.00
3.694,0.01,0.36,1.10,0.59,-0.42,2.60,-0.25,-0.30,0.85,0.00
3.753,0.08,0.26,1.23,0.59,-0.42,2.60,-0.25,-0.30,0.85,0.00
3.756,0.08,0.26,1.23,0.59,-0.42,2.60,-0.89,-0.77,0.55,0.00
3.757,0.08,0.26,1.23,1.02,-0.11,2.16,-0.89,-0.77,0.55,0.00
3.796,0.09,0.22,1.20,1.02,-0.11,2.16,-0.89,-0.77,0.55,0.00
3.819,0.09,0.22,1.20,1.02,-0.11,2.16,-0.74,-0.51,0.53,0.00
3.821,0.09,0.22,1.20,1.30,-0.78,3.67,-0.74,-0.51,0.53,0.00
3.851,0.17,0.11,1.24,1.30,-0.78,3.67,-0.74,-0.51,0.53,0.00
3.935,0.17,0.11,1.24,1.30,-0.78,3.67,-0.97,-0.68,0.24,0.00
3.938,0.17,0.11,1.24,0.60,-0.17,0.61,-0.97,-0.68,0.24,0.00
3.941,0.17,0.20,0.78,0.60,-0.17,0.61,-0.97,-0.68,0.24,0.00
3.953,0.17,0.20,0.78,0.60,-0.17,0.61,-0.00,-0.42,0.82,0.00
3.956,0.17,0.20,0.78,0.54,0.39,-1.97,-0.00,-0.42,0.82,0.00
4.008,0.19,0.19,0.78,0.54,0.39,-1.97,-0.00,-0.42,0.82,0.00
4.017,0.19,0.19,0.78,0.54,0.39,-1.97,0.51,-0.32,0.88,0.00
4.017,0.19,0.19,0.78,-0.50,0.26,-1.75,0.51,-0.32,0.88,0.00
4.049,0.11,0.22,0.84,-0.50,0.26,-1.75,0.51,-0.32,0.88,0.00
4.096,0.11,0.22,0.84,-0.50,0.26,-1.75,0.53,0.08,0.13,0.00
4.099,0.11,0.22,0.84,-0.28,0.25,-1.32,0.53,0.08,0.13,0.00
4.116,0.18,0.31,0.71,-0.28,0.25,-1.32,0.53,0.08,0.13,0.00
4.149,0.18,0.31,0.71,-0.28,0.25,-1.32,1.19,-0.16,0.93,0.00
4.151,0.18,0.31,0.71,0.31,0.40,-2.15,1.19,-0.16,0.93,0.00
4.192,0.24,0.33,0.77,0.31,0.40,-2.15,1.19,-0.16,0.93,0.00
4.215,0.24,0.33,0.77,0.31,0.40,-2.15,0.92,-0.32,0.61,0.00
4.218,0.24,0.33,0.77,-0.20,-0.03,-1.04,0.92,-0.32,0.61,0.00
4.247,0.19,0.32,0.91,-0.20,-0.03,-1.04,0.92,-0.32,0.61,0.00
4.328,0.19,0.32,0.91,-0.20,-0.03,-1.04,-0.60,-0.07,-1.34,0.00
4.333,0.19,0.32,0.91,-0.67,-0.26,2.31,-0.60,-0.07,-1.34,0.00
4.334,0.14,0.28,1.30,-0.67,-0.26,2.31,-0.60,-0.07,-1.34,0.00
4.363,0.14,0.28,1.30,-0.67,-0.26,2.31,-1.34,-0.01,-2.26,0.00
4.364,0.14,0.28,1.30,-0.03,-0.32,3.74,-1.34,-0.01,-2.26,0.00
4.381,0.21,0.27,1.15,-0.03,-0.32,3.74,-1.34,-0.01,-2.26,0.00
4.413,0.21,0.27,1.15,-0.03,-0.32,3.74,-0.68,-0.11,-1.48,0.00
4.415,0.21,0.27,1.15,-1.06,-0.02,1.87,-0.68,-0.11,-1.48,0.00
4.445,-0.08,0.23,1.23,-1.06,-0.02,1.87,-0.68,-0.11,-1.48,0.00
4.48,-0.08,0.23,1.23,-1.06,-0.02,1.87,-0.62,1.26,-2.21,0.00
4.482,-0.08,0.23,1.23,-3.17,0.37,3.22,-0.62,1.26,-2.21,0.00
4.514,-0.13,0.27,1.12,-3.17,0.37,3.22,-0.62,1.26,-2.21,0.00
4.554,-0.13,0.27,1.12,-3.17,0.37,3.22,0.07,0.83,-0.67,0.00
4.561,-0.13,0.27,1.12,0.19,0.37,-0.63,0.07,0.83,-0.67,0.00
4.577,-0.03,0.29,0.72,0.19,0.37,-0.63,0.07,0.83,-0.67,0.00
4.625,-0.03,0.29,0.72,0.19,0.37,-0.63,0.72,0.39,0.71,0.00
4.627,-0.03,0.29,0.72,-0.09,0.55,-2.00,0.72,0.39,0.71,0.00
4.647,-0.04,0.32,0.81,-0.09,0.55,-2.00,0.72,0.39,0.71,0.00
4.679,-0.04,0.32,0.81,-0.09,0.55,-2.00,0.70,0.22,1.15,0.00
4.68,-0.04,0.32,0.81,0.69,0.26,-1.48,0.70,0.22,1.15,0.00
4.71,0.08,0.34,0.74,0.69,0.26,-1.48,0.70,0.22,1.15,0.00
4.743,0.08,0.34,0.74,0.69,0.26,-1.48,0.63,-0.57,1.85,0.00
4.745,0.08,0.34,0.74,1.55,-0.51,-1.31,0.63,-0.57,1.85,0.00
4.775,0.07,0.26,0.90,1.55,-0.51,-1.31,0.63,-0.57,1.85,0.00
4.823,0.07,0.26,0.90,1.55,-0.51,-1.31,-0.50,-0.40,0.41,0.00
4.825,0.07,0.26,0.90,-0.27,-0.94,0.06,-0.50,-0.40,0.41,0.00
4.855,-0.05,0.24,0.84,-0.27,-0.94,0.06,-0.50,-0.40,0.41,0.00
4.892,-0.05,0.24,0.84,-0.27,-0.94,0.06,-0.37,0.47,-0.69,0.00
4.895,-0.05,0.24,0.84,-1.28,-0.14,-1.86,-0.37,0.47,-0.69,0.00
4.917,-0.08,0.32,0.81,-1.28,-0.14,-1.86,-0.37,0.47,-0.69,0.00
4.948,-0.08,0.32,0.81,-1.28,-0.14,-1.86,0.16,0.44,-0.01,0.00
4.95,-0.08,0.32,0.81,0.70,-0.10,1.08,0.16,0.44,-0.01,0.00
4.974,0.24,0.23,1.30,0.70,-0.10,1.08,0.16,0.44,-0.01,0.00
5.025,0.24,0.23,1.30,0.70,-0.10,1.08,-1.03,-1.08,0.67,0.00
5.026,0.24,0.23,1.30,1.69,-0.47,3.95,-1.03,-1.08,0.67,0.00
5.04,0.22,0.20,1.31,1.69,-0.47,3.95,-1.03,-1.08,0.67,0.00
5.074,0.22,0.20,1.31,1.69,-0.47,3.95,-0.86,-0.81,0.63,0.00
5.076,0.22,0.20,1.31,1.40,-0.18,3.65,-0.86,-0.81,0.63,0.00
5.113,0.30,0.09,1.35,1.40,-0.18,3.65,-0.86,-0.81,0.63,0.00
5.139,0.30,0.09,1.35,1.40,-0.18,3.65,-0.98,-0.49,0.06,0.00
5.14,0.30,0.09,1.35,0.77,-0.57,4.36,-0.98,-0.49,0.06,0.00
5.171,0.15,0.13,1.07,0.77,-0.57,4.36,-0.98,-0.49,0.06,0.00
5.224,0.15,0.13,1.07,0.77,-0.57,4.36,0.05,-0.26,0.51,0.00
5.225,0.15,0.13,1.07,0.71,0.46,-2.23,0.05,-0.26,0.51,0.00
5.237,0.23,0.23,0.51,0.71,0.46,-2.23,0.05,-0.26,0.51,0.00
5.274,0.23,0.23,0.51,0.71,0.46,-2.23,1.41,-0.61,1.98,0.00
5.275,0.23,0.23,0.51,-0.31,0.72,-3.99,1.41,-0.61,1.98,0.00
5.315,0.15,0.40,0.60,-0.31,0.72,-3.99,1.41,-0.61,1.98,0.00
5.337,0.15,0.40,0.60,-0.31,0.72,-3.99,2.55,0.12,1.28,0.00
5.339,0.15,0.40,0.60,-0.45,0.87,-1.53,2.55,0.12,1.28,0.00
5.369,0.18,0.36,0.88,-0.45,0.87,-1.53,2.55,0.12,1.28,0.00
5.403,0.18,0.36,0.88,-0.45,0.87,-1.53,0.28,0.05,-1.47,0.00
5.404,0.18,0.36,0.88,-0.95,-0.31,-0.75,0.28,0.05,-1.47,0.00
5.46,0.17,0.35,0.71,-0.95,-0.31,-0.75,0.28,0.05,-1.47,0.00
5.47,0.17,0.35,0.71,-0.95,-0.31,-0.75,0.09,-0.32,-1.48,0.00
5.471,0.17,0.35,0.71,-0.19,-0.48,-1.56,0.09,-0.32,-1.48,0.00
5.502,0.14,0.32,0.73,-0.19,-0.48,-1.56,0.09,-0.32,-1.48,0.00
5.543,0.14,0.32,0.73,-0.19,-0.48,-1.56,-0.34,-0.50,-1.85,0.00
5.545,0.14,0.32,0.73,-1.05,-0.64,0.06,-0.34,-0.50,-1.85,0.00
5.567,-0.07,0.34,1.00,-1.05,-0.64,0.06,-0.34,-0.50,-1.85,0.00
5.601,-0.07,0.34,1.00,-1.05,-0.64,0.06,-1.05,0.56,-3.30,0.00
5.602,-0.07,0.34,1.00,-2.42,-0.34,1.61,-1.05,0.56,-3.30,0.00
5.634,-0.18,0.44,1.25,-2.42,-0.34,1.61,-1.05,0.56,-3.30,0.00
5.668,-0.18,0.44,1.25,-2.42,-0.34,1.61,-0.38,0.90,-2.14,0.00
5.67,-0.18,0.44,1.25,-0.73,1.48,1.64,-0.38,0.90,-2.14,0.00
5.7,0.20,0.47,1.15,-0.73,1.48,1.64,-0.38,0.90,-2.14,0.00
5.733,0.20,0.47,1.15,-0.73,1.48,1.64,0.22,-0.66,0.15,0.00
5.736,0.20,0.47,1.15,2.02,0.65,3.99,0.22,-0.66,0.15,0.00
5.765,0.00,0.34,1.49,2.02,0.65,3.99,0.22,-0.66,0.15,0.00
5.799,0.00,0.34,1.49,2.02,0.65,3.99,-0.84,-0.43,-0.58,0.00
5.8,0.00,0.34,1.49,-0.01,0.23,4.26,-0.84,-0.43,-0.58,0.00
5.832,0.05,0.34,0.80,-0.01,0.23,4.26,-0.84,-0.43,-0.58,0.00
5.866,0.05,0.34,0.80,-0.01,0.23,4.26,0.67,0.01,0.90,0.00
5.868,0.05,0.34,0.80,0.28,0.67,-3.21,0.67,0.01,0.90,0.00
5.897,0.01,0.41,0.86,0.28,0.67,-3.21,0.67,0.01,0.90,0.00
5.983,0.01,0.41,0.86,0.28,0.67,-3.21,0.86,0.32,0.85,0.00
5.985,0.01,0.41,0.86,-0.39,0.01,-0.76,0.86,0.32,0.85,0.00
5.986,-0.09,0.38,0.75,-0.39,0.01,-0.76,0.86,0.32,0.85,0.00
5.997,-0.09,0.38,0.75,-0.39,0.01,-0.76,0.66,0.84,-0.06,0.00
5.998,-0.09,0.38,0.75,-0.86,-0.30,-1.91,0.66,0.84,-0.06,0.00
6.043,-0.06,0.40,0.78,-0.86,-0.30,-1.91,0.66,0.84,-0.06,0.00
6.065,-0.06,0.40,0.78,-0.86,-0.30,-1.91,0.36,0.57,-0.21,0.00
6.067,-0.06,0.40,0.78,-0.73,-0.39,-0.65,0.36,0.57,-0.21,0.00
6.095,-0.20,0.40,0.86,-0.73,-0.39,-0.65,0.36,0.57,-0.21,0.00
6.134,-0.20,0.40,0.86,-0.73,-0.39,-0.65,-0.03,0.74,-0.73,0.00
6.136,-0.20,0.40,0.86,-0.96,-0.27,0.06,-0.03,0.74,-0.73,0.00
6.161,-0.11,0.41,0.99,-0.96,-0.27,0.06,-0.03,0.74,-0.73,0.00
6.195,-0.11,0.41,0.99,-0.96,-0.27,0.06,-0.46,-0.23,-0.18,0.00
6.196,-0.11,0.41,0.99,0.99,-0.17,1.72,-0.46,-0.23,-0.18,0.00
6.263,0.07,0.29,1.36,0.99,-0.17,1.72,-0.46,-0.23,-0.18,0.00
6.266,0.07,0.29,1.36,0.99,-0.17,1.72,-1.42,-1.36,-0.33,0.00
6.266,0.07,0.29,1.36,1.17,-0.71,3.11,-1.42,-1.36,-0.33,0.00
6.293,0.14,0.27,1.13,1.17,-0.71,3.11,-1.42,-1.36,-0.33,0.00
6.332,0.14,0.27,1.13,1.17,-0.71,3.11,-0.41,-1.33,0.57,0.00
6.334,0.14,0.27,1.13,2.47,0.31,-0.63,-0.41,-1.33,0.57,0.00
6.36,0.42,0.23,0.94,2.47,0.31,-0.63,-0.41,-1.33,0.57,0.00
6.393,0.42,0.23,0.94,2.47,0.31,-0.63,-0.14,-1.90,1.22,0.00
6.394,0.42,0.23,0.94,1.61,-0.45,-0.39,-0.14,-1.90,1.22,0.00
6.432,0.18,0.27,0.87,1.61,-0.45,-0.39,-0.14,-1.90,1.22,0.00
6.461,0.18,0.27,0.87,1.61,-0.45,-0.39,0.07,-0.42,0.30,0.00
6.462,0.18,0.27,0.87,-0.45,0.19,0.14,0.07,-0.42,0.30,0.00
6.491,0.18,0.30,0.82,-0.45,0.19,0.14,0.07,-0.42,0.30,0.00
6.545,0.18,0.30,0.82,-0.45,0.19,0.14,0.61,0.12,0.24,0.00
6.546,0.18,0.30,0.82,-0.68,0.40,-2.47,0.61,0.12,0.24,0.00
6.557,0.18,0.41,0.59,-0.68,0.40,-2.47,0.61,0.12,0.24,0.00
6.591,0.18,0.41,0.59,-0.68,0.40,-2.47,2.07,0.58,1.63,0.00
6.592,0.18,0.41,0.59,-0.40,0.19,-2.55,2.07,0.58,1.63,0.00
6.629,0.13,0.42,0.66,-0.40,0.19,-2.55,2.07,0.58,1.63,0.00
6.658,0.13,0.42,0.66,-0.40,0.19,-2.55,1.34,0.52,0.54,0.00
6.661,0.13,0.42,0.66,-0.69,-0.28,-1.58,1.34,0.52,0.54,0.00
6.689,0.23,0.45,0.72,-0.69,-0.28,-1.58,1.34,0.52,0.54,0.00
6.739,0.23,0.45,0.72,-0.69,-0.28,-1.58,0.55,-0.06,0.36,0.00
6.741,0.23,0.45,0.72,0.04,-0.44,-0.91,0.55,-0.06,0.36,0.00
6.756,0.19,0.45,0.75,0.04,-0.44,-0.91,0.55,-0.06,0.36,0.00
6.789,0.19,0.45,0.75,0.04,-0.44,-0.91,-0.03,-0.14,-0.77,0.00
6.79,0.19,0.45,0.75,-0.94,-0.32,-0.53,-0.03,-0.14,-0.77,0.00
6.833,0.13,0.48,0.82,-0.94,-0.32,-0.53,-0.03,-0.14,-0.77,0.00
6.858,0.13,0.48,0.82,-0.94,-0.32,-0.53,-0.32,-0.18,-1.31,0.00
6.861,0.13,0.48,0.82,-0.34,-0.28,-0.06,-0.32,-0.18,-1.31,0.00
6.887,0.14,0.48,0.88,-0.34,-0.28,-0.06,-0.32,-0.18,-1.31,0.00
6.943,0.14,0.48,0.88,-0.34,-0.28,-0.06,-0.45,-0.32,-1.44,0.00
6.945,0.14,0.48,0.88,-0.61,-0.04,0.17,-0.45,-0.32,-1.44,0.00
6.955,0.01,0.53,0.83,-0.61,-0.04,0.17,-0.45,-0.32,-1.44,0.00
6.987,0.01,0.53,0.83,-0.61,-0.04,0.17,0.03,0.11,-1.47,0.00
6.989,0.01,0.53,0.83,-0.27,0.05,0.85,0.03,0.11,-1.47,0.00
7.026,0.10,0.47,1.04,-0.27,0.05,0.85,0.03,0.11,-1.47,0.00
7.054,0.10,0.47,1.04,-0.27,0.05,0.85,-0.93,-0.89,-1.73,0.00
7.056,0.10,0.47,1.04,0.45,-0.24,2.06,-0.93,-0.89,-1.73,0.00
7.085,0.05,0.41,1.06,0.45,-0.24,2.06,-0.93,-0.89,-1.73,0.00
7.128,0.05,0.41,1.06,0.45,-0.24,2.06,-0.77,-0.31,-1.52,0.00
7.129,0.05,0.41,1.06,-1.18,0.29,0.29,-0.77,-0.31,-1.52,0.00
7.152,-0.02,0.50,0.79,-1.18,0.29,0.29,-0.77,-0.31,-1.52,0.00
7.185,-0.02,0.50,0.79,-1.18,0.29,0.29,0.42,0.15,-0.12,0.00
7.186,-0.02,0.50,0.79,0.90,-0.03,-0.38,0.42,0.15,-0.12,0.00
7.23,0.14,0.42,0.86,0.90,-0.03,-0.38,0.42,0.15,-0.12,0.00
7.254,0.14,0.42,0.86,0.90,-0.03,-0.38,-0.01,-0.76,-0.27,0.00
7.255,0.14,0.42,0.86,0.52,-0.48,-0.41,-0.01,-0.76,-0.27,0.00
7.283,0.09,0.41,0.87,0.52,-0.48,-0.41,-0.01,-0.76,-0.27,0.00
7.328,0.09,0.41,0.87,0.52,-0.48,-0.41,-0.30,-0.62,-0.74,0.00
7.329,0.09,0.41,0.87,0.08,-0.39,-0.09,-0.30,-0.62,-0.74,0.00
7.361,0.07,0.41,0.78,0.08,-0.39,-0.09,-0.30,-0.62,-0.74,0.00
7.384,0.07,0.41,0.78,0.08,-0.39,-0.09,0.02,-0.41,-0.78,0.00
7.385,0.07,0.41,0.78,-0.23,-0.13,-0.96,0.02,-0.41,-0.78,0.00
7.44,0.05,0.44,0.77,-0.23,-0.13,-0.96,0.02,-0.41,-0.78,0.00
7.454,0.05,0.44,0.77,-0.23,-0.13,-0.96,0.09,-0.30,-0.95,0.00
7.455,0.05,0.44,0.77,-0.19,0.01,0.17,0.09,-0.30,-0.95,0.00
7.481,0.13,0.46,1.04,-0.19,0.01,0.17,0.09,-0.30,-0.95,0.00
7.53,0.13,0.46,1.04,-0.19,0.01,0.17,-0.68,-1.08,-1.47,0.00
7.532,0.13,0.46,1.04,1.03,-0.03,2.49,-0.68,-1.08,-1.47,0.00
7.556,0.27,0.41,1.15,1.03,-0.03,2.49,-0.68,-1.08,-1.47,0.00
7.581,0.27,0.41,1.15,1.03,-0.03,2.49,-1.09,-1.78,-1.81,0.00
7.583,0.27,0.41,1.15,1.38,-0.08,1.90,-1.09,-1.78,-1.81,0.00
7.614,0.26,0.30,0.89,1.38,-0.08,1.90,-1.09,-1.78,-1.81,0.00
7.649,0.26,0.30,0.89,1.38,-0.08,1.90,-1.34,-1.50,-2.14,0.00
7.651,0.26,0.30,0.89,-0.02,-1.16,1.72,-1.34,-1.50,-2.14,0.00
7.679,0.12,0.22,1.07,-0.02,-1.16,1.72,-1.34,-1.50,-2.14,0.00
7.713,0.12,0.22,1.07,-0.02,-1.16,1.72,-1.17,-0.16,-1.70,0.00
7.715,0.12,0.22,1.07,-0.43,-0.23,-0.22,-1.17,-0.16,-1.70,0.00
7.754,0.20,0.30,0.77,-0.43,-0.23,-0.22,-1.17,-0.16,-1.70,0.00
7.779,0.20,0.30,0.77,-0.43,-0.23,-0.22,0.12,-0.67,-1.00,0.00
7.783,0.20,0.30,0.77,0.67,0.34,-1.85,0.12,-0.67,-1.00,0.00
7.811,0.31,0.32,0.75,0.67,0.34,-1.85,0.12,-0.67,-1.00,0.00
7.86,0.31,0.32,0.75,0.67,0.34,-1.85,0.24,-1.17,-1.16,0.00
7.865,0.31,0.32,0.75,-0.35,0.10,-0.54,0.24,-1.17,-1.16,0.00
7.878,0.18,0.33,0.87,-0.35,0.10,-0.54,0.24,-1.17,-1.16,0.00
7.911,0.18,0.33,0.87,-0.35,0.10,-0.54,-0.02,0.20,-0.63,0.00
7.913,0.18,0.33,0.87,-0.93,-0.23,0.71,-0.02,0.20,-0.63,0.00
7.952,0.09,0.31,0.95,-0.93,-0.23,0.71,-0.02,0.20,-0.63,0.00
7.977,0.09,0.31,0.95,-0.93,-0.23,0.71,-0.12,0.82,-0.37,0.00
7.979,0.09,0.31,0.95,-0.80,0.05,-0.38,-0.12,0.82,-0.37,0.00
8.009,0.08,0.35,0.86,-0.80,0.05,-0.38,-0.12,0.82,-0.37,0.00
8.049,0.08,0.35,0.86,-0.80,0.05,-0.38,0.07,0.44,-0.59,0.00
8.052,0.08,0.35,0.86,-0.43,-0.20,0.14,0.07,0.44,-0.59,0.00
8.078,0.07,0.30,1.00,-0.43,-0.20,0.14,0.07,0.44,-0.59,0.00
8.109,0.07,0.30,1.00,-0.43,-0.20,0.14,-0.40,0.37,-0.82,0.00
8.111,0.07,0.30,1.00,-0.84,-0.16,1.00,-0.40,0.37,-0.82,0.00
8.148,-0.06,0.34,1.02,-0.84,-0.16,1.00,-0.40,0.37,-0.82,0.00
8.175,-0.06,0.34,1.02,-0.84,-0.16,1.00,-0.04,0.93,-0.42,0.00
8.176,-0.06,0.34,1.02,-1.29,0.45,0.30,-0.04,0.93,-0.42,0.00
8.207,-0.07,0.28,1.17,-1.29,0.45,0.30,-0.04,0.93,-0.42,0.00
8.247,-0.07,0.28,1.17,-1.29,0.45,0.30,-0.65,0.48,-0.85,0.00
8.249,-0.07,0.28,1.17,-0.94,-1.08,3.91,-0.65,0.48,-0.85,0.00
8.274,-0.17,0.17,1.35,-0.94,-1.08,3.91,-0.65,0.48,-0.85,0.00
8.307,-0.17,0.17,1.35,-0.94,-1.08,3.91,-0.84,0.53,-0.78,0.00
8.308,-0.17,0.17,1.35,-0.73,0.02,-0.25,-0.84,0.53,-0.78,0.00
8.346,-0.15,0.25,0.69,-0.73,0.02,-0.25,-0.84,0.53,-0.78,0.00
8.373,-0.15,0.25,0.69,-0.73,0.02,-0.25,0.38,0.57,0.02,0.00
8.374,-0.15,0.25,0.69,-0.10,0.21,-1.81,0.38,0.57,0.02,0.00
8.405,-0.04,0.19,0.92,-0.10,0.21,-1.81,0.38,0.57,0.02,0.00
8.462,-0.04,0.19,0.92,-0.10,0.21,-1.81,-0.00,-0.44,-0.64,0.00
8.466,-0.04,0.19,0.92,0.60,-0.48,-0.34,-0.00,-0.44,-0.64,0.00
8.472,-0.07,0.21,0.94,0.60,-0.48,-0.34,-0.00,-0.44,-0.64,0.00
8.505,-0.07,0.21,0.94,0.60,-0.48,-0.34,0.08,-0.60,-0.65,0.00
8.507,-0.07,0.21,0.94,0.69,0.10,-0.88,0.08,-0.60,-0.65,0.00
8.551,-0.14,0.29,0.76,0.69,0.10,-0.88,0.08,-0.60,-0.65,0.00
8.578,-0.14,0.29,0.76,0.69,0.10,-0.88,0.55,0.09,-0.06,0.00
8.586,-0.14,0.29,0.76,-1.14,0.91,-2.74,0.55,0.09,-0.06,0.00
8.603,-0.20,0.42,0.86,-1.14,0.91,-2.74,0.55,0.09,-0.06,0.00
8.653,-0.20,0.42,0.86,-1.14,0.91,-2.74,1.04,0.97,0.84,0.00
8.655,-0.20,0.42,0.86,-0.20,0.86,0.54,1.04,0.97,0.84,0.00
8.67,-0.08,0.44,1.15,-0.20,0.86,0.54,1.04,0.97,0.84,0.00
8.703,-0.08,0.44,1.15,-0.20,0.86,0.54,0.19,-0.82,-0.46,0.00
8.705,-0.08,0.44,1.15,0.93,0.78,3.10,0.19,-0.82,-0.46,0.00
8.75,0.01,0.45,1.19,0.93,0.78,3.10,0.19,-0.82,-0.46,0.00
8.769,0.01,0.45,1.19,0.93,0.78,3.10,0.12,-1.24,-0.76,0.00
8.771,0.01,0.45,1.19,0.86,0.92,1.93,0.12,-1.24,-0.76,0.00
8.801,-0.05,0.40,1.29,0.86,0.92,1.93,0.12,-1.24,-0.76,0.00
8.85,-0.05,0.40,1.29,0.86,0.92,1.93,-0.42,-0.12,-0.13,0.00
8.852,-0.05,0.40,1.29,-0.80,0.20,3.48,-0.42,-0.12,-0.13,0.00
8.867,-0.28,0.46,1.03,-0.80,0.20,3.48,-0.42,-0.12,-0.13,0.00
8.901,-0.28,0.46,1.03,-0.80,0.20,3.48,0.18,1.28,0.91,0.00
8.902,-0.28,0.46,1.03,-0.72,1.09,1.17,0.18,1.28,0.91,0.00
8.947,0.13,0.31,1.03,-0.72,1.09,1.17,0.18,1.28,0.91,0.00
8.967,0.13,0.31,1.03,-0.72,1.09,1.17,-0.51,-1.09,-0.63,0.00
8.968,0.13,0.31,1.03,1.23,-2.25,1.91,-0.51,-1.09,-0.63,0.00
8.999,0.09,0.03,1.27,1.23,-2.25,1.91,-0.51,-1.09,-0.63,0.00
9.047,0.09,0.03,1.27,1.23,-2.25,1.91,-1.90,-1.61,-1.12,0.00
9.049,0.09,0.03,1.27,2.31,-1.67,1.33,-1.90,-1.61,-1.12,0.00
9.066,0.53,0.07,0.80,2.31,-1.67,1.33,-1.90,-1.61,-1.12,0.00
9.099,0.53,0.07,0.80,2.31,-1.67,1.33,-1.24,-3.33,-2.09,0.00
9.101,0.53,0.07,0.80,3.19,-0.33,-2.49,-1.24,-3.33,-2.09,0.00
9.138,0.37,0.13,0.86,3.19,-0.33,-2.49,-1.24,-3.33,-2.09,0.00
9.165,0.37,0.13,0.86,3.19,-0.33,-2.49,-0.55,-1.65,-1.30,0.00
9.168,0.37,0.13,0.86,-0.30,0.10,1.10,-0.55,-1.65,-1.30,0.00
9.197,0.27,0.14,0.97,-0.30,0.10,1.10,-0.55,-1.65,-1.30,0.00
9.247,0.27,0.14,0.97,-0.30,0.10,1.10,-0.03,-0.17,-0.66,0.00
9.249,0.27,0.14,0.97,-0.41,0.32,-1.40,-0.03,-0.17,-0.66,0.00
9.264,0.25,0.16,0.81,-0.41,0.32,-1.40,-0.03,-0.17,-0.66,0.00
9.297,0.25,0.16,0.81,-0.41,0.32,-1.40,0.15,0.07,-0.68,0.00
9.298,0.25,0.16,0.81,-1.14,0.28,-1.04,0.15,0.07,-0.68,0.00
9.336,0.10,0.24,0.76,-1.14,0.28,-1.04,0.15,0.07,-0.68,0.00
9.363,0.10,0.24,0.76,-1.14,0.28,-1.04,1.06,1.22,-0.06,0.00
9.364,0.10,0.24,0.76,-2.26,0.84,-3.03,1.06,1.22,-0.06,0.00
9.395,-0.01,0.32,0.58,-2.26,0.84,-3.03,1.06,1.22,-0.06,0.00
9.451,-0.01,0.32,0.58,-2.26,0.84,-3.03,1.51,2.02,0.93,0.00
9.452,-0.01,0.32,0.58,-1.61,-0.23,-1.59,1.51,2.02,0.93,0.00
9.466,0.32,0.18,1.05,-1.61,-0.23,-1.59,1.51,2.02,0.93,0.00
9.495,0.32,0.18,1.05,-1.61,-0.23,-1.59,-1.25,-1.70,-0.81,0.00
9.496,0.32,0.18,1.05,3.31,-0.43,3.93,-1.25,-1.70,-0.81,0.00
9.543,0.28,0.25,1.34,3.31,-0.43,3.93,-1.25,-1.70,-0.81,0.00
9.562,0.28,0.25,1.34,3.31,-0.43,3.93,-0.54,-0.20,0.18,0.00
9.563,0.28,0.25,1.34,-0.29,0.49,3.37,-0.54,-0.20,0.18,0.00
9.593,0.28,0.16,1.27,-0.29,0.49,3.37,-0.54,-0.20,0.18,0.00
9.628,0.28,0.16,1.27,-0.29,0.49,3.37,-0.39,0.42,0.38,0.00
9.63,0.28,0.16,1.27,-0.13,-0.14,2.84,-0.39,0.42,0.38,0.00
9.662,0.06,0.18,1.09,-0.13,-0.14,2.84,-0.39,0.42,0.38,0.00
9.693,0.06,0.18,1.09,-0.13,-0.14,2.84,0.16,0.96,0.65,0.00
9.694,0.06,0.18,1.09,-0.74,0.75,-0.03,0.16,0.96,0.65,0.00
9.725,0.16,0.26,0.82,-0.74,0.75,-0.03,0.16,0.96,0.65,0.00
9.759,0.16,0.26,0.82,-0.74,0.75,-0.03,0.59,0.16,-0.06,0.00
9.762,0.16,0.26,0.82,0.32,0.57,-1.62,0.59,0.16,-0.06,0.00
9.791,0.28,0.23,0.90,0.32,0.57,-1.62,0.59,0.16,-0.06,0.00
9.826,0.28,0.23,0.90,0.32,0.57,-1.62,0.15,-0.93,-0.88,0.00
9.827,0.28,0.23,0.90,0.94,-0.04,-0.20,0.15,-0.93,-0.88,0.00
9.873,0.25,0.21,0.87,0.94,-0.04,-0.20,0.15,-0.93,-0.88,0.00
9.891,0.25,0.21,0.87,0.94,-0.04,-0.20,-0.06,-0.53,-0.45,0.00
9.892,0.25,0.21,0.87,-0.27,-0.27,-0.55,-0.06,-0.53,-0.45,0.00
9.923,0.20,0.20,0.90,-0.27,-0.27,-0.55,-0.06,-0.53,-0.45,0.00
9.957,0.20,0.20,0.90,-0.27,-0.27,-0.55,-0.09,0.07,0.00,0.00
9.959,0.20,0.20,0.90,-0.20,-0.24,-0.47,-0.09,0.07,0.00,0.00
9.989,0.23,0.19,0.90,-0.20,-0.24,-0.47,-0.09,0.07,0.00,0.00
10.024,0.23,0.19,0.90,-0.20,-0.24,-0.47,-0.24,-0.07,-0.09,0.00
10.026,0.23,0.19,0.90,-0.08,-0.39,-0.30,-0.24,-0.07,-0.09,0.00
10.058,0.18,0.13,0.98,-0.08,-0.39,-0.30,-0.24,-0.07,-0.09,0.00
10.089,0.18,0.13,0.98,-0.08,-0.39,-0.30,-0.43,0.50,0.46,0.00
10.09,0.18,0.13,0.98,-0.63,-0.49,0.85,-0.43,0.50,0.46,0.00
10.121,0.23,0.11,1.02,-0.63,-0.49,0.85,-0.43,0.50,0.46,0.00
10.193,0.23,0.11,1.02,-0.63,-0.49,0.85,-0.64,-0.35,-0.07,0.00
10.195,0.23,0.11,1.02,1.78,-1.08,-0.57,-0.64,-0.35,-0.07,0.00
10.195,0.39,-0.09,1.11,1.78,-1.08,-0.57,-0.64,-0.35,-0.07,0.00
10.224,0.39,-0.09,1.11,1.78,-1.08,-0.57,-1.48,-0.91,-0.15,0.00
10.225,0.39,-0.09,1.11,-0.18,-1.33,-0.99,-1.48,-0.91,-0.15,0.00
10.255,0.28,-0.05,0.63,-0.18,-1.33,-0.99,-1.48,-0.91,-0.15,0.00
10.287,0.28,-0.05,0.63,-0.18,-1.33,-0.99,-1.01,-0.67,-0.38,0.00
10.288,0.28,-0.05,0.63,0.20,-0.35,-1.13,-1.01,-0.67,-0.38,0.00
10.319,0.40,0.01,1.07,0.20,-0.35,-1.13,-1.01,-0.67,-0.38,0.00
10.378,0.40,0.01,1.07,0.20,-0.35,-1.13,-0.10,-0.44,-0.72,0.00
10.38,0.40,0.01,1.07,0.78,0.84,0.53,-0.10,-0.44,-0.72,0.00
10.385,0.33,0.15,0.74,0.78,0.84,0.53,-0.10,-0.44,-0.72,0.00
10.42,0.33,0.15,0.74,0.78,0.84,0.53,0.55,-0.33,-1.35,0.00
10.422,0.33,0.15,0.74,-1.61,0.89,-1.88,0.55,-0.33,-1.35,0.00
10.458,0.04,0.21,0.62,-1.61,0.89,-1.88,0.55,-0.33,-1.35,0.00
10.485,0.04,0.21,0.62,-1.61,0.89,-1.88,1.35,1.28,-0.71,0.00
10.487,0.04,0.21,0.62,-1.95,0.91,-2.65,1.35,1.28,-0.71,0.00
10.517,0.38,0.28,0.88,-1.95,0.91,-2.65,1.35,1.28,-0.71,0.00
10.566,0.38,0.28,0.88,-1.95,0.91,-2.65,0.71,-0.67,-1.62,0.00
10.567,0.38,0.28,0.88,1.05,0.60,0.14,0.71,-0.67,-1.62,0.00
10.584,0.30,0.28,1.02,1.05,0.60,0.14,0.71,-0.67,-1.62,0.00
10.618,0.30,0.28,1.02,1.05,0.60,0.14,-0.11,-0.02,-0.50,0.00
10.62,0.30,0.28,1.02,1.05,-0.17,3.09,-0.11,-0.02,-0.50,0.00
10.671,0.47,0.19,1.55,1.05,-0.17,3.09,-0.11,-0.02,-0.50,0.00
10.698,0.47,0.19,1.55,1.05,-0.17,3.09,-0.77,0.17,0.23,0.00
10.703,0.47,0.19,1.55,1.18,-0.23,6.86,-0.77,0.17,0.23,0.00
10.716,0.26,0.21,1.40,1.18,-0.23,6.86,-0.77,0.17,0.23,0.00
10.767,0.26,0.21,1.40,1.18,-0.23,6.86,-0.37,0.65,0.29,0.00
10.768,0.26,0.21,1.40,0.40,0.32,3.36,-0.37,0.65,0.29,0.00
10.783,0.42,0.18,1.14,0.40,0.32,3.36,-0.37,0.65,0.29,0.00
10.816,0.42,0.18,1.14,0.40,0.32,3.36,-0.22,-0.38,-0.49,0.00
10.818,0.42,0.18,1.14,0.03,0.21,0.57,-0.22,-0.38,-0.49,0.00
10.866,0.09,0.18,0.82,0.03,0.21,0.57,-0.22,-0.38,-0.49,0.00
10.881,0.09,0.18,0.82,0.03,0.21,0.57,0.24,0.59,0.01,0.00
10.883,0.09,0.18,0.82,-1.93,0.38,-2.54,0.24,0.59,0.01,0.00
10.913,0.13,0.23,0.66,-1.93,0.38,-2.54,0.24,0.59,0.01,0.00
10.954,0.13,0.23,0.66,-1.93,0.38,-2.54,0.80,0.42,-0.31,0.00
10.955,0.13,0.23,0.66,-0.58,0.19,-2.56,0.80,0.42,-0.31,0.00
10.979,0.13,0.24,0.75,-0.58,0.19,-2.56,0.80,0.42,-0.31,0.00
11.014,0.13,0.24,0.75,-0.58,0.19,-2.56,0.43,0.29,-0.12,0.00
11.016,0.13,0.24,0.75,-0.38,-0.31,-0.74,0.43,0.29,-0.12,0.00
11.064,0.13,0.23,0.86,-0.38,-0.31,-0.74,0.43,0.29,-0.12,0.00
11.081,0.13,0.23,0.86,-0.38,-0.31,-0.74,0.16,0.19,0.06,0.00
11.083,0.13,0.23,0.86,-0.11,0.01,-1.10,0.16,0.19,0.06,0.00
11.111,0.26,0.27,0.93,-0.11,0.01,-1.10,0.16,0.19,0.06,0.00
11.152,0.26,0.27,0.93,-0.11,0.01,-1.10,-0.09,-0.65,-0.44,0.00
11.154,0.26,0.27,0.93,0.69,-0.08,0.86,-0.09,-0.65,-0.44,0.00
11.177,0.23,0.24,1.11,0.69,-0.08,0.86,-0.09,-0.65,-0.44,0.00
11.213,0.23,0.24,1.11,0.69,-0.08,0.86,-0.59,-0.12,-0.02,0.00
11.214,0.23,0.24,1.11,0.75,-0.44,2.73,-0.59,-0.12,-0.02,0.00
11.259,0.33,0.17,1.23,0.75,-0.44,2.73,-0.59,-0.12,-0.02,0.00
11.277,0.33,0.17,1.23,0.75,-0.44,2.73,-0.82,-0.55,-0.20,0.00
11.279,0.33,0.17,1.23,1.09,-0.19,1.19,-0.82,-0.55,-0.20,0.00
11.309,0.33,0.18,1.02,1.09,-0.19,1.19,-0.82,-0.55,-0.20,0.00
11.358,0.33,0.18,1.02,1.09,-0.19,1.19,-0.45,-0.66,-0.44,0.00
11.359,0.33,0.18,1.02,1.21,-0.18,1.26,-0.45,-0.66,-0.44,0.00
11.375,0.37,0.10,1.03,1.21,-0.18,1.26,-0.45,-0.66,-0.44,0.00
11.41,0.37,0.10,1.03,1.21,-0.18,1.26,-0.54,-0.48,-0.09,0.00
11.412,0.37,0.10,1.03,0.04,-0.46,-0.22,-0.54,-0.48,-0.09,0.00
11.46,0.21,0.12,0.81,0.04,-0.46,-0.22,-0.54,-0.48,-0.09,0.00
11.476,0.21,0.12,0.81,0.04,-0.46,-0.22,-0.07,0.08,-0.06,0.00
11.479,0.21,0.12,0.81,-0.52,0.17,-2.03,-0.07,0.08,-0.06,0.00
11.507,0.31,0.16,0.60,-0.52,0.17,-2.03,-0.07,0.08,-0.06,0.00
11.558,0.31,0.16,0.60,-0.52,0.17,-2.03,0.25,-0.70,-0.66,0.00
11.56,0.31,0.16,0.60,-0.35,0.08,-3.28,0.25,-0.70,-0.66,0.00
11.574,0.18,0.15,0.71,-0.35,0.08,-3.28,0.25,-0.70,-0.66,0.00
11.608,0.18,0.15,0.71,-0.35,0.08,-3.28,0.27,0.49,-0.12,0.00
11.61,0.18,0.15,0.71,-1.89,-0.37,-1.56,0.27,0.49,-0.12,0.00
11.657,0.12,0.18,0.84,-1.89,-0.37,-1.56,0.27,0.49,-0.12,0.00
11.686,0.12,0.18,0.84,-1.89,-0.37,-1.56,0.30,1.26,0.25,0.00
11.688,0.12,0.18,0.84,-0.91,0.08,-1.43,0.30,1.26,0.25,0.00
11.71,0.23,0.26,0.76,-0.91,0.08,-1.43,0.30,1.26,0.25,0.00
11.757,0.23,0.26,0.76,-0.91,0.08,-1.43,0.52,-0.13,-0.57,0.00
11.759,0.23,0.26,0.76,0.05,0.21,-1.29,0.52,-0.13,-0.57,0.00
11.774,0.25,0.25,1.03,0.05,0.21,-1.29,0.52,-0.13,-0.57,0.00
11.806,0.25,0.25,1.03,0.05,0.21,-1.29,0.02,0.23,0.21,0.00
11.808,0.25,0.25,1.03,-0.19,0.02,1.79,0.02,0.23,0.21,0.00
11.845,0.22,0.25,1.33,-0.19,0.02,1.79,0.02,0.23,0.21,0.00
11.874,0.22,0.25,1.33,-0.19,0.02,1.79,-0.32,0.76,0.80,0.00
11.875,0.22,0.25,1.33,0.30,0.25,4.01,-0.32,0.76,0.80,0.00
11.903,0.31,0.28,1.32,0.30,0.25,4.01,-0.32,0.76,0.80,0.00
11.953,0.31,0.28,1.32,0.30,0.25,4.01,-0.16,-0.55,0.06,0.00
11.954,0.31,0.28,1.32,2.98,0.56,2.74,-0.16,-0.55,0.06,0.00
11.969,0.43,0.21,1.35,2.98,0.56,2.74,-0.16,-0.55,0.06,0.00
12.004,0.43,0.21,1.35,2.98,0.56,2.74,-0.33,-0.54,0.25,0.00
12.006,0.43,0.21,1.35,1.08,-0.04,3.57,-0.33,-0.54,0.25,0.00
12.043,0.32,0.10,1.20,1.08,-0.04,3.57,-0.33,-0.54,0.25,0.00
12.069,0.32,0.10,1.20,1.08,-0.04,3.57,-0.46,0.29,0.74,0.00
12.072,0.32,0.10,1.20,-0.47,-0.56,2.79,-0.46,0.29,0.74,0.00
12.101,0.12,0.10,0.93,-0.47,-0.56,2.79,-0.46,0.29,0.74,0.00
12.135,0.12,0.10,0.93,-0.47,-0.56,2.79,0.00,0.54,0.44,0.00
12.136,0.12,0.10,0.93,-0.33,0.25,-2.73,0.00,0.54,0.44,0.00
12.175,0.16,0.17,0.76,-0.33,0.25,-2.73,0.00,0.54,0.44,0.00
12.204,0.16,0.17,0.76,-0.33,0.25,-2.73,0.38,0.24,0.11,0.00
12.205,0.16,0.17,0.76,-1.07,0.24,-2.01,0.38,0.24,0.11,0.00
12.233,0.14,0.22,0.57,-1.07,0.24,-2.01,0.38,0.24,0.11,0.00
12.282,0.14,0.22,0.57,-1.07,0.24,-2.01,0.91,0.12,-0.35,0.00
12.284,0.14,0.22,0.57,-0.59,0.54,-4.36,0.91,0.12,-0.35,0.00
12.299,0.11,0.28,0.66,-0.59,0.54,-4.36,0.91,0.12,-0.35,0.00
12.333,0.11,0.28,0.66,-0.59,0.54,-4.36,0.96,0.11,-0.71,0.00
12.334,0.11,0.28,0.66,-0.54,-0.12,-1.59,0.96,0.11,-0.71,0.00
12.365,0.12,0.29,0.79,-0.54,-0.12,-1.59,0.96,0.11,-0.71,0.00
12.401,0.12,0.29,0.79,-0.54,-0.12,-1.59,0.49,0.23,-0.44,0.00
12.402,0.12,0.29,0.79,-0.28,-0.05,-0.97,0.49,0.23,-0.44,0.00
12.431,0.19,0.32,0.91,-0.28,-0.05,-0.97,0.49,0.23,-0.44,0.00
12.465,0.19,0.32,0.91,-0.28,-0.05,-0.97,0.02,-0.33,-0.55,0.00
12.467,0.19,0.32,0.91,0.67,-0.36,0.20,0.02,-0.33,-0.55,0.00
12.497,0.17,0.27,0.89,0.67,-0.36,0.20,0.02,-0.33,-0.55,0.00
12.531,0.17,0.27,0.89,0.67,-0.36,0.20,-0.40,-0.09,-0.42,0.00
12.532,0.17,0.27,0.89,-0.74,-0.43,-0.26,-0.40,-0.09,-0.42,0.00
12.563,0.05,0.29,0.98,-0.74,-0.43,-0.26,-0.40,-0.09,-0.42,0.00
12.598,0.05,0.29,0.98,-0.74,-0.43,-0.26,-0.20,0.64,-0.50,0.00
12.6,0.05,0.29,0.98,-0.58,0.40,0.93,-0.20,0.64,-0.50,0.00
12.629,0.10,0.34,1.05,-0.58,0.40,0.93,-0.20,0.64,-0.50,0.00
12.708,0.10,0.34,1.05,-0.58,0.40,0.93,-0.21,-0.38,-1.01,0.00
12.712,0.10,0.34,1.05,1.23,-0.08,1.00,-0.21,-0.38,-1.01,0.00
12.718,0.21,0.25,1.08,1.23,-0.08,1.00,-0.21,-0.38,-1.01,0.00
12.729,0.21,0.25,1.08,1.23,-0.08,1.00,-0.68,-0.65,-0.83,0.00
12.73,0.21,0.25,1.08,0.48,-0.48,1.50,-0.68,-0.65,-0.83,0.00
12.78,0.18,0.17,1.06,0.48,-0.48,1.50,-0.68,-0.65,-0.83,0.00
12.807,0.18,0.17,1.06,0.48,-0.48,1.50,-0.98,-0.48,-0.65,0.00
12.81,0.18,0.17,1.06,0.85,-1.09,1.49,-0.98,-0.48,-0.65,0.00
12.827,0.21,0.08,1.22,0.85,-1.09,1.49,-0.98,-0.48,-0.65,0.00
12.882,0.21,0.08,1.22,0.85,-1.09,1.49,-1.03,0.04,-0.62,0.00
12.884,0.21,0.08,1.22,-0.59,-0.20,0.83,-1.03,0.04,-0.62,0.00
12.897,0.25,0.14,1.04,-0.59,-0.20,0.83,-1.03,0.04,-0.62,0.00
12.927,0.25,0.14,1.04,-0.59,-0.20,0.83,-0.48,-0.60,-1.50,0.00
12.93,0.25,0.14,1.04,1.20,-0.04,0.67,-0.48,-0.60,-1.50,0.00
12.969,0.32,0.09,1.01,1.20,-0.04,0.67,-0.48,-0.60,-1.50,0.00
13.0,0.32,0.09,1.01,1.20,-0.04,0.67,-0.48,-0.87,-1.47,0.00
13.002,0.32,0.09,1.01,0.20,0.28,-0.62,-0.48,-0.87,-1.47,0.00
13.025,0.26,0.17,0.90,0.20,0.28,-0.62,-0.48,-0.87,-1.47,0.00
13.077,0.26,0.17,0.90,0.20,0.28,-0.62,-0.16,-0.71,-1.87,0.00
13.078,0.26,0.17,0.90,0.23,0.50,-0.97,-0.16,-0.71,-1.87,0.00
13.107,0.23,0.15,0.89,0.23,0.50,-0.97,-0.16,-0.71,-1.87,0.00
13.125,0.23,0.15,0.89,0.23,0.50,-0.97,-0.28,-0.18,-1.63,0.00
13.127,0.23,0.15,0.89,-0.58,-0.30,-0.01,-0.28,-0.18,-1.63,0.00
13.17,0.07,0.10,1.00,-0.58,-0.30,-0.01,-0.28,-0.18,-1.63,0.00
13.21,0.07,0.10,1.00,-0.58,-0.30,-0.01,-0.51,0.83,-1.11,0.00
13.211,0.07,0.10,1.00,-2.11,0.26,-1.10,-0.51,0.83,-1.11,0.00
13.227,-0.07,0.19,0.90,-2.11,0.26,-1.10,-0.51,0.83,-1.11,0.00
13.262,-0.07,0.19,0.90,-2.11,0.26,-1.10,-0.14,1.17,-2.35,0.00
13.263,-0.07,0.19,0.90,-0.82,-0.18,1.26,-0.14,1.17,-2.35,0.00
13.29,0.00,0.11,1.05,-0.82,-0.18,1.26,-0.14,1.17,-2.35,0.00
13.323,0.00,0.11,1.05,-0.82,-0.18,1.26,-0.23,0.61,-2.51,0.00
13.325,0.00,0.11,1.05,-0.88,0.09,-0.19,-0.23,0.61,-2.51,0.00
13.389,-0.07,0.27,0.93,-0.88,0.09,-0.19,-0.23,0.61,-2.51,0.00
13.391,-0.07,0.27,0.93,-0.88,0.09,-0.19,0.48,0.02,-4.89,0.00
13.392,-0.07,0.27,0.93,-0.54,1.04,-0.55,0.48,0.02,-4.89,0.00
13.423,-0.07,0.40,0.77,-0.54,1.04,-0.55,0.48,0.02,-4.89,0.00
13.48,-0.07,0.40,0.77,-0.54,1.04,-0.55,1.85,-1.08,-7.16,0.00
13.483,-0.07,0.40,0.77,0.49,1.08,-1.88,1.85,-1.08,-7.16,0.00
13.487,0.08,0.35,0.81,0.49,1.08,-1.88,1.85,-1.08,-7.16,0.00
13.521,0.08,0.35,0.81,0.49,1.08,-1.88,0.71,-1.06,-1.04,0.00
13.523,0.08,0.35,0.81,0.68,-0.40,-0.47,0.71,-1.06,-1.04,0.00
13.57,-0.07,0.24,1.15,0.68,-0.40,-0.47,0.71,-1.06,-1.04,0.00
13.589,-0.07,0.24,1.15,0.68,-0.40,-0.47,-0.82,-0.46,-2.29,0.00
13.593,-0.07,0.24,1.15,-0.65,-0.55,1.61,-0.82,-0.46,-2.29,0.00
13.619,0.00,0.26,0.94,-0.65,-0.55,1.61,-0.82,-0.46,-2.29,0.00
13.67,0.00,0.26,0.94,-0.65,-0.55,1.61,-0.22,-0.64,-0.98,0.00
13.671,0.00,0.26,0.94,0.97,-0.06,-0.73,-0.22,-0.64,-0.98,0.00
13.69,0.27,0.17,0.80,0.97,-0.06,-0.73,-0.22,-0.64,-0.98,0.00
13.72,0.27,0.17,0.80,0.97,-0.06,-0.73,-0.19,-0.83,3.02,0.00
13.722,0.27,0.17,0.80,1.17,-0.68,-1.08,-0.19,-0.83,3.02,0.00
13.772,0.34,0.34,0.89,1.17,-0.68,-1.08,-0.19,-0.83,3.02,0.00
13.794,0.34,0.34,0.89,1.17,-0.68,-1.08,1.03,-1.25,2.65,0.00
13.799,0.34,0.34,0.89,2.64,1.16,-0.84,1.03,-1.25,2.65,0.00
13.818,0.31,0.39,0.94,2.64,1.16,-0.84,1.03,-1.25,2.65,0.00
13.86,0.31,0.39,0.94,2.64,1.16,-0.84,0.64,-1.11,-0.02,0.00
13.862,0.31,0.39,0.94,-1.22,0.35,2.33,0.64,-1.11,-0.02,0.00
13.896,0.08,0.39,1.30,-1.22,0.35,2.33,0.64,-1.11,-0.02,0.00
13.917,0.08,0.39,1.30,-1.22,0.35,2.33,-0.89,-0.14,-3.63,0.00
13.918,0.08,0.39,1.30,-0.13,0.86,2.44,-0.89,-0.14,-3.63,0.00
13.97,0.19,0.36,0.81,-0.13,0.86,2.44,-0.89,-0.14,-3.63,0.00
13.989,0.19,0.36,0.81,-0.13,0.86,2.44,-0.04,-0.45,-1.68,0.00
13.996,0.19,0.36,0.81,-0.32,-0.45,-2.25,-0.04,-0.45,-1.68,0.00
14.015,0.13,0.23,0.69,-0.32,-0.45,-2.25,-0.04,-0.45,-1.68,0.00
14.068,0.13,0.23,0.69,-0.32,-0.45,-2.25,-0.31,-0.49,-1.53,0.00
14.069,0.13,0.23,0.69,-0.82,-1.11,-2.74,-0.31,-0.49,-1.53,0.00
14.084,0.05,0.23,0.60,-0.82,-1.11,-2.74,-0.31,-0.49,-1.53,0.00
14.115,0.05,0.23,0.60,-0.82,-1.11,-2.74,-0.32,-0.40,-2.55,0.00
14.117,0.05,0.23,0.60,-0.85,-0.99,-2.90,-0.32,-0.40,-2.55,0.00
14.157,0.12,0.24,0.78,-0.85,-0.99,-2.90,-0.32,-0.40,-2.55,0.00
14.185,0.12,0.24,0.78,-0.85,-0.99,-2.90,-0.61,-0.60,-2.01,0.00
14.188,0.12,0.24,0.78,0.14,-0.93,-0.64,-0.61,-0.60,-2.01,0.00
14.213,0.22,0.21,1.14,0.14,-0.93,-0.64,-0.61,-0.60,-2.01,0.00
14.268,0.22,0.21,1.14,0.14,-0.93,-0.64,-1.29,-0.95,-0.99,0.00
14.27,0.22,0.21,1.14,1.49,-0.63,1.47,-1.29,-0.95,-0.99,0.00
14.284,0.40,0.25,0.84,1.49,-0.63,1.47,-1.29,-0.95,-0.99,0.00
14.313,0.40,0.25,0.84,1.49,-0.63,1.47,0.55,-1.06,2.25,0.00
14.315,0.40,0.25,0.84,1.17,0.16,-1.90,0.55,-1.06,2.25,0.00
14.365,0.19,0.30,0.70,1.17,0.16,-1.90,0.55,-1.06,2.25,0.00
14.384,0.19,0.30,0.70,1.17,0.16,-1.90,0.38,-0.42,-1.19,0.00
14.387,0.19,0.30,0.70,-1.55,0.36,-0.95,0.38,-0.42,-1.19,0.00
14.411,0.21,0.26,1.00,-1.55,0.36,-0.95,0.38,-0.42,-1.19,0.00
14.464,0.21,0.26,1.00,-1.55,0.36,-0.95,-1.57,-0.04,-3.69,0.00
14.466,0.21,0.26,1.00,-1.48,-0.57,3.98,-1.57,-0.04,-3.69,0.00
14.481,-0.05,0.34,1.23,-1.48,-0.57,3.98,-1.57,-0.04,-3.69,0.00
14.512,-0.05,0.34,1.23,-1.48,-0.57,3.98,-0.82,1.01,-3.24,0.00
14.514,-0.05,0.34,1.23,-0.45,1.18,2.37,-0.82,1.01,-3.24,0.00
14.544,0.11,0.34,1.26,-0.45,1.18,2.37,-0.82,1.01,-3.24,0.00
14.579,0.11,0.34,1.26,-0.45,1.18,2.37,0.11,0.31,-0.42,0.00
14.58,0.11,0.34,1.26,-0.03,0.84,1.42,0.11,0.31,-0.42,0.00
14.609,0.14,0.33,0.87,-0.03,0.84,1.42,0.11,0.31,-0.42,0.00
14.644,0.14,0.33,0.87,-0.03,0.84,1.42,0.58,-0.15,0.60,0.00
14.645,0.14,0.33,0.87,0.46,-0.03,-1.57,0.58,-0.15,0.60,0.00
14.69,0.12,0.22,0.77,0.46,-0.03,-1.57,0.58,-0.15,0.60,0.00
14.723,0.12,0.22,0.77,0.46,-0.03,-1.57,0.18,-0.23,0.43,0.00
14.724,0.12,0.22,0.77,-0.39,-0.78,-2.22,0.18,-0.23,0.43,0.00
14.741,0.06,0.24,0.79,-0.39,-0.78,-2.22,0.18,-0.23,0.43,0.00
14.781,0.06,0.24,0.79,-0.39,-0.78,-2.22,-0.14,0.05,-0.40,0.00
14.782,0.06,0.24,0.79,-0.25,-0.42,-0.26,-0.14,0.05,-0.40,0.00
14.808,0.10,0.35,1.11,-0.25,-0.42,-0.26,-0.14,0.05,-0.40,0.00
14.841,0.10,0.35,1.11,-0.25,-0.42,-0.26,0.08,0.08,-0.46,0.00
14.843,0.10,0.35,1.11,0.03,1.32,2.59,0.08,0.08,-0.46,0.00
14.897,0.40,0.17,1.36,0.03,1.32,2.59,0.08,0.08,-0.46,0.00
14.934,0.40,0.17,1.36,0.03,1.32,2.59,-2.13,-1.53,-0.54,0.00
14.936,0.40,0.17,1.36,3.13,-2.94,7.40,-2.13,-1.53,-0.54,0.00
14.94,0.18,0.03,1.55,3.13,-2.94,7.40,-2.13,-1.53,-0.54,0.00
14.991,0.18,0.03,1.55,3.13,-2.94,7.40,-1.39,-0.15,-0.95,0.00
14.992,0.18,0.03,1.55,0.55,0.63,3.14,-1.39,-0.15,-0.95,0.00
15.009,0.58,0.24,0.91,0.55,0.63,3.14,-1.39,-0.15,-0.95,0.00
15.039,0.58,0.24,0.91,0.55,0.63,3.14,1.50,-1.16,4.11,0.00
15.041,0.58,0.24,0.91,2.40,1.01,-0.09,1.50,-1.16,4.11,0.00
15.091,0.30,0.11,1.03,2.40,1.01,-0.09,1.50,-1.16,4.11,0.00
15.112,0.30,0.11,1.03,2.40,1.01,-0.09,0.59,-0.08,1.59,0.00
15.114,0.30,0.11,1.03,-0.91,-0.07,0.36,0.59,-0.08,1.59,0.00
15.137,0.21,0.11,0.66,-0.91,-0.07,0.36,0.59,-0.08,1.59,0.00
15.179,0.21,0.11,0.66,-0.91,-0.07,0.36,0.45,0.17,0.84,0.00
15.182,0.21,0.11,0.66,-1.22,-0.05,-3.61,0.45,0.17,0.84,0.00
15.208,0.17,0.12,0.57,-1.22,-0.05,-3.61,0.45,0.17,0.84,0.00
15.237,0.17,0.12,0.57,-1.22,-0.05,-3.61,0.87,0.29,1.45,0.00
15.238,0.17,0.12,0.57,-1.13,-0.36,-3.72,0.87,0.29,1.45,0.00
15.289,0.11,0.13,0.55,-1.13,-0.36,-3.72,0.87,0.29,1.45,0.00
15.306,0.11,0.13,0.55,-1.13,-0.36,-3.72,0.35,0.81,-0.92,0.00
15.308,0.11,0.13,0.55,-2.13,-0.18,-3.04,0.35,0.81,-0.92,0.00
15.335,0.01,0.19,0.69,-2.13,-0.18,-3.04,0.35,0.81,-0.92,0.00
15.377,0.01,0.19,0.69,-2.13,-0.18,-3.04,0.30,1.43,-2.29,0.00
15.379,0.01,0.19,0.69,-1.62,0.02,-2.03,0.30,1.43,-2.29,0.00
15.406,0.04,0.25,0.88,-1.62,0.02,-2.03,0.30,1.43,-2.29,0.00
15.435,0.04,0.25,0.88,-1.62,0.02,-2.03,0.22,0.55,0.09,0.00
15.437,0.04,0.25,0.88,0.71,-0.29,-0.18,0.22,0.55,0.09,0.00
15.476,0.21,0.21,0.94,0.71,-0.29,-0.18,0.22,0.55,0.09,0.00
15.506,0.21,0.21,0.94,0.71,-0.29,-0.18,-0.10,-0.27,1.69,0.00
15.507,0.21,0.21,0.94,0.44,-0.41,0.26,-0.10,-0.27,1.69,0.00
15.533,0.12,0.15,1.41,0.44,-0.41,0.26,-0.10,-0.27,1.69,0.00
15.588,0.12,0.15,1.41,0.44,-0.41,0.26,-1.18,-0.24,-1.35,0.00
15.591,0.12,0.15,1.41,0.78,-0.22,4.10,-1.18,-0.24,-1.35,0.00
15.608,0.17,0.25,0.99,0.78,-0.22,4.10,-1.18,-0.24,-1.35,0.00
15.633,0.17,0.25,0.99,0.78,-0.22,4.10,0.25,-0.23,-0.19,0.00
15.635,0.17,0.25,0.99,0.08,1.05,-0.14,0.25,-0.23,-0.19,0.00
15.684,0.18,0.20,1.19,0.08,1.05,-0.14,0.25,-0.23,-0.19,0.00
15.702,0.18,0.20,1.19,0.08,1.05,-0.14,-0.14,-0.22,0.07,0.00
15.704,0.18,0.20,1.19,1.15,-0.44,3.32,-0.14,-0.22,0.07,0.00
15.731,0.21,0.10,1.40,1.15,-0.44,3.32,-0.14,-0.22,0.07,0.00
15.783,0.21,0.10,1.40,1.15,-0.44,3.32,-0.63,-0.04,-0.18,0.00
15.785,0.21,0.10,1.40,-0.17,-0.07,1.18,-0.63,-0.04,-0.18,0.00
15.801,0.12,0.14,0.79,-0.17,-0.07,1.18,-0.63,-0.04,-0.18,0.00
15.831,0.12,0.14,0.79,-0.17,-0.07,1.18,0.13,0.06,0.31,0.00
15.833,0.12,0.14,0.79,-0.27,0.24,-2.71,0.13,0.06,0.31,0.00
15.874,0.10,0.16,0.57,-0.27,0.24,-2.71,0.13,0.06,0.31,0.00
15.907,0.10,0.16,0.57,-0.27,0.24,-2.71,0.77,0.08,0.72,0.00
15.909,0.10,0.16,0.57,-0.68,0.04,-4.17,0.77,0.08,0.72,0.00
15.929,0.06,0.24,0.54,-0.68,0.04,-4.17,0.77,0.08,0.72,0.00
15.98,0.06,0.24,0.54,-0.68,0.04,-4.17,1.72,0.29,0.78,0.00
15.982,0.06,0.24,0.54,0.10,0.59,-2.19,1.72,0.29,0.78,0.00
16.0,0.40,0.26,1.22,0.10,0.59,-2.19,1.72,0.29,0.78,0.00
16.029,0.40,0.26,1.22,0.10,0.59,-2.19,0.28,-0.56,2.14,0.00
16.031,0.40,0.26,1.22,1.68,0.00,4.46,0.28,-0.56,2.14,0.00
16.078,0.46,0.12,1.26,1.68,0.00,4.46,0.28,-0.56,2.14,0.00
16.097,0.46,0.12,1.26,1.68,0.00,4.46,-1.24,-0.66,1.34,0.00
16.1,0.46,0.12,1.26,2.16,-1.85,4.77,-1.24,-0.66,1.34,0.00
16.127,0.09,-0.06,1.31,2.16,-1.85,4.77,-1.24,-0.66,1.34,0.00
16.168,0.09,-0.06,1.31,2.16,-1.85,4.77,-2.63,0.72,-4.01,0.00
16.171,0.09,-0.06,1.31,-1.83,-0.11,2.19,-2.63,0.72,-4.01,0.00
16.198,0.14,0.14,1.10,-1.83,-0.11,2.19,-2.63,0.72,-4.01,0.00
16.227,0.14,0.14,1.10,-1.83,-0.11,2.19,0.14,0.23,-0.24,0.00
16.229,0.14,0.14,1.10,1.14,1.19,-1.66,0.14,0.23,-0.24,0.00
16.267,0.40,0.19,0.80,1.14,1.19,-1.66,0.14,0.23,-0.24,0.00
16.293,0.40,0.19,0.80,1.14,1.19,-1.66,1.56,-0.98,3.42,0.00
16.295,0.40,0.19,0.80,1.28,0.46,-1.36,1.56,-0.98,3.42,0.00
16.325,0.22,0.17,0.70,1.28,0.46,-1.36,1.56,-0.98,3.42,0.00
16.367,0.22,0.17,0.70,1.28,0.46,-1.36,1.02,-0.24,1.03,0.00
16.379,0.22,0.17,0.70,-1.61,0.03,-3.32,1.02,-0.24,1.03,0.00
16.393,0.01,0.21,0.55,-1.61,0.03,-3.32,1.02,-0.24,1.03,0.00
16.425,0.01,0.21,0.55,-1.61,0.03,-3.32,0.51,0.89,-2.40,0.00
16.427,0.01,0.21,0.55,-2.39,-0.41,-3.07,0.51,0.89,-2.40,0.00
16.476,-0.03,0.19,0.71,-2.39,-0.41,-3.07,0.51,0.89,-2.40,0.00
16.491,-0.03,0.19,0.71,-2.39,-0.41,-3.07,-0.10,0.81,-2.15,0.00
16.495,-0.03,0.19,0.71,-0.20,-1.19,-2.76,-0.10,0.81,-2.15,0.00
16.523,0.11,0.12,0.89,-0.20,-1.19,-2.76,-0.10,0.81,-2.15,0.00
16.574,0.11,0.12,0.89,-0.20,-1.19,-2.76,-0.71,0.18,-0.56,0.00
16.576,0.11,0.12,0.89,-0.72,-0.71,-2.18,-0.71,0.18,-0.56,0.00
16.591,-0.32,0.45,0.83,-0.72,-0.71,-2.18,-0.71,0.18,-0.56,0.00
16.623,-0.32,0.45,0.83,-0.72,-0.71,-2.18,0.20,1.10,-0.70,0.00
16.625,-0.32,0.45,0.83,3.01,0.14,9.81,0.20,1.10,-0.70,0.00
16.673,0.48,0.17,2.03,3.01,0.14,9.81,0.20,1.10,-0.70,0.00
16.689,0.48,0.17,2.03,3.01,0.14,9.81,-1.31,-1.42,1.75,0.00
16.694,0.48,0.17,2.03,2.43,-0.27,4.41,-1.31,-1.42,1.75,0.00
16.721,0.28,0.16,0.93,2.43,-0.27,4.41,-1.31,-1.42,1.75,0.00
16.773,0.28,0.16,0.93,2.43,-0.27,4.41,-0.03,-0.74,2.69,0.00
16.774,0.28,0.16,0.93,0.81,-0.17,-0.76,-0.03,-0.74,2.69,0.00
16.791,0.02,0.18,0.85,0.81,-0.17,-0.76,-0.03,-0.74,2.69,0.00
16.821,0.02,0.18,0.85,0.81,-0.17,-0.76,0.37,0.32,1.64,0.00
16.823,0.02,0.18,0.85,-1.49,0.31,-2.06,0.37,0.32,1.64,0.00
16.853,0.23,0.15,0.75,-1.49,0.31,-2.06,0.37,0.32,1.64,0.00
16.887,0.23,0.15,0.75,-1.49,0.31,-2.06,0.71,0.02,2.94,0.00
16.89,0.23,0.15,0.75,0.88,-0.11,-1.97,0.71,0.02,2.94,0.00
16.919,0.16,0.17,0.81,0.88,-0.11,-1.97,0.71,0.02,2.94,0.00
16.954,0.16,0.17,0.81,0.88,-0.11,-1.97,0.31,-0.02,1.96,0.00
16.956,0.16,0.17,0.81,0.62,-0.28,0.35,0.31,-0.02,1.96,0.00
16.985,0.40,0.13,0.92,0.62,-0.28,0.35,0.31,-0.02,1.96,0.00
17.019,0.40,0.13,0.92,0.62,-0.28,0.35,0.49,-0.54,3.26,0.00
17.021,0.40,0.13,0.92,1.25,-0.42,0.33,0.49,-0.54,3.26,0.00
17.051,0.36,0.02,1.37,1.25,-0.42,0.33,0.49,-0.54,3.26,0.00
17.103,0.36,0.02,1.37,1.25,-0.42,0.33,-0.69,0.15,1.85,0.00
17.104,0.36,0.02,1.37,0.92,-1.33,4.33,-0.69,0.15,1.85,0.00
17.118,0.17,-0.02,1.07,0.92,-1.33,4.33,-0.69,0.15,1.85,0.00
17.153,0.17,-0.02,1.07,0.92,-1.33,4.33,-0.63,0.52,0.28,0.00
17.154,0.17,-0.02,1.07,-0.05,-0.14,-0.18,-0.63,0.52,0.28,0.00
17.183,0.36,0.09,0.75,-0.05,-0.14,-0.18,-0.63,0.52,0.28,0.00
17.217,0.36,0.09,0.75,-0.05,-0.14,-0.18,0.78,-0.70,1.93,0.00
17.219,0.36,0.09,0.75,0.49,0.65,-2.74,0.78,-0.70,1.93,0.00
17.249,0.32,0.13,0.80,0.49,0.65,-2.74,0.78,-0.70,1.93,0.00
17.324,0.32,0.13,0.80,0.49,0.65,-2.74,0.85,-0.45,0.90,0.00
17.326,0.32,0.13,0.80,-0.45,0.31,-0.79,0.85,-0.45,0.90,0.00
17.326,0.20,0.15,0.84,-0.45,0.31,-0.79,0.85,-0.45,0.90,0.00
17.352,0.20,0.15,0.84,-0.45,0.31,-0.79,0.36,0.35,-0.46,0.00
17.353,0.20,0.15,0.84,-0.73,0.62,0.01,0.36,0.35,-0.46,0.00
17.385,0.37,0.21,1.11,-0.73,0.62,0.01,0.36,0.35,-0.46,0.00
17.415,0.37,0.21,1.11,-0.73,0.62,0.01,0.48,-0.12,0.69,0.00
17.417,0.37,0.21,1.11,2.14,0.29,2.92,0.48,-0.12,0.69,0.00
17.447,0.53,0.13,1.43,2.14,0.29,2.92,0.48,-0.12,0.69,0.00
17.487,0.53,0.13,1.43,2.14,0.29,2.92,-0.09,-0.08,1.09,0.00
17.489,0.53,0.13,1.43,1.10,-0.24,4.79,-0.09,-0.08,1.09,0.00
17.515,0.35,0.12,1.29,1.10,-0.24,4.79,-0.09,-0.08,1.09,0.00
17.549,0.35,0.12,1.29,1.10,-0.24,4.79,-0.03,0.32,-0.16,0.00
17.55,0.35,0.12,1.29,-0.33,1.22,0.11,-0.03,0.32,-0.16,0.00
17.597,0.22,0.28,0.82,-0.33,1.22,0.11,-0.03,0.32,-0.16,0.00
17.614,0.22,0.28,0.82,-0.33,1.22,0.11,0.75,0.17,-1.62,0.00
17.615,0.22,0.28,0.82,-1.09,1.31,-1.25,0.75,0.17,-1.62,0.00
17.645,0.11,0.27,0.97,-1.09,1.31,-1.25,0.75,0.17,-1.62,0.00
17.69,0.11,0.27,0.97,-1.09,1.31,-1.25,0.17,0.70,-2.13,0.00
17.698,0.11,0.27,0.97,-1.44,0.13,0.91,0.17,0.70,-2.13,0.00
17.735,-0.05,0.24,1.03,-1.44,0.13,0.91,0.17,0.70,-2.13,0.00
17.747,-0.05,0.24,1.03,-1.44,0.13,0.91,-0.09,1.16,-2.12,0.00
17.748,-0.05,0.24,1.03,-1.68,0.16,-1.08,-0.09,1.16,-2.12,0.00
17.791,-0.03,0.26,0.82,-1.68,0.16,-1.08,-0.09,1.16,-2.12,0.00
17.814,-0.03,0.26,0.82,-1.68,0.16,-1.08,0.21,0.57,-0.25,0.00
17.817,-0.03,0.26,0.82,0.72,-0.22,-0.73,0.21,0.57,-0.25,0.00
17.843,0.05,0.20,1.01,0.72,-0.22,-0.73,0.21,0.57,-0.25,0.00
17.884,0.05,0.20,1.01,0.72,-0.22,-0.73,-0.38,0.23,1.34,0.00
17.886,0.05,0.20,1.01,0.16,-0.64,1.12,-0.38,0.23,1.34,0.00
17.911,0.12,0.15,1.13,0.16,-0.64,1.12,-0.38,0.23,1.34,0.00
17.945,0.12,0.15,1.13,0.16,-0.64,1.12,-0.64,0.08,2.37,0.00
17.946,0.12,0.15,1.13,0.59,-0.37,1.62,-0.64,0.08,2.37,0.00
18.008,0.15,0.13,1.11,0.59,-0.37,1.62,-0.64,0.08,2.37,0.00
18.009,0.15,0.13,1.11,0.59,-0.37,1.62,-0.34,-0.03,2.85,0.00
18.016,0.15,0.13,1.11,0.74,-0.27,0.99,-0.34,-0.03,2.85,0.00
18.041,0.12,0.14,1.02,0.74,-0.27,0.99,-0.34,-0.03,2.85,0.00
18.079,0.12,0.14,1.02,0.74,-0.27,0.99,0.12,-0.17,2.67,0.00
18.08,0.12,0.14,1.02,1.09,-0.04,0.04,0.12,-0.17,2.67,0.00
18.11,0.24,0.11,0.96,1.09,-0.04,0.04,0.12,-0.17,2.67,0.00
18.144,0.24,0.11,0.96,1.09,-0.04,0.04,0.21,-0.41,2.59,0.00
18.145,0.24,0.11,0.96,0.52,-0.19,0.21,0.21,-0.41,2.59,0.00
18.19,0.18,0.13,0.96,0.52,-0.19,0.21,0.21,-0.41,2.59,0.00
18.223,0.18,0.13,0.96,0.52,-0.19,0.21,0.18,-0.03,1.05,0.00
18.225,0.18,0.13,0.96,-0.23,0.27,-0.84,0.18,-0.03,1.05,0.00
18.239,0.19,0.16,0.86,-0.23,0.27,-0.84,0.18,-0.03,1.05,0.00
18.301,0.19,0.16,0.86,-0.23,0.27,-0.84,0.44,-0.09,0.74,0.00
18.303,0.19,0.16,0.86,0.02,0.15,-0.53,0.44,-0.09,0.74,0.00
18.315,0.15,0.18,0.96,0.02,0.15,-0.53,0.44,-0.09,0.74,0.00
18.341,0.15,0.18,0.96,0.02,0.15,-0.53,0.36,0.26,0.31,0.00
18.343,0.15,0.18,0.96,-0.48,0.29,-0.10,0.36,0.26,0.31,0.00
18.389,0.16,0.22,0.94,-0.48,0.29,-0.10,0.36,0.26,0.31,0.00
18.406,0.16,0.22,0.94,-0.48,0.29,-0.10,0.46,0.25,0.16,0.00
18.411,0.16,0.22,0.94,-0.21,0.42,-0.69,0.46,0.25,0.16,0.00
18.437,0.17,0.25,0.89,-0.21,0.42,-0.69,0.46,0.25,0.16,0.00
18.481,0.17,0.25,0.89,-0.21,0.42,-0.69,0.59,0.08,0.17,0.00
18.483,0.17,0.25,0.89,-0.18,0.41,-0.73,0.59,0.08,0.17,0.00
18.514,0.11,0.24,1.08,-0.18,0.41,-0.73,0.59,0.08,0.17,0.00
18.541,0.11,0.24,1.08,-0.18,0.41,-0.73,0.27,0.45,0.42,0.00
18.543,0.11,0.24,1.08,-1.01,0.19,1.36,0.27,0.45,0.42,0.00
18.578,0.05,0.27,1.03,-1.01,0.19,1.36,0.27,0.45,0.42,0.00
18.615,0.05,0.27,1.03,-1.01,0.19,1.36,0.09,0.81,0.56,0.00
18.616,0.05,0.27,1.03,-0.42,0.13,0.72,0.09,0.81,0.56,0.00
18.636,0.00,0.20,1.11,-0.42,0.13,0.72,0.09,0.81,0.56,0.00
18.693,0.00,0.20,1.11,-0.42,0.13,0.72,-0.27,1.02,1.18,0.00
18.695,0.00,0.20,1.11,-0.84,-0.28,1.37,-0.27,1.02,1.18,0.00
18.702,-0.07,0.19,1.05,-0.84,-0.28,1.37,-0.27,1.02,1.18,0.00
18.736,-0.07,0.19,1.05,-0.84,-0.28,1.37,-0.26,0.90,1.40,0.00
18.738,-0.07,0.19,1.05,-0.11,-0.11,0.35,-0.26,0.90,1.40,0.00
18.785,0.05,0.20,0.96,-0.11,-0.11,0.35,-0.26,0.90,1.40,0.00
18.803,0.05,0.20,0.96,-0.11,-0.11,0.35,-0.04,0.21,1.51,0.00
18.806,0.05,0.20,0.96,0.49,0.06,-0.12,-0.04,0.21,1.51,0.00
18.833,0.04,0.24,0.90,0.49,0.06,-0.12,-0.04,0.21,1.51,0.00
18.884,0.04,0.24,0.90,0.49,0.06,-0.12,0.37,-0.06,0.65,0.00
18.886,0.04,0.24,0.90,0.00,0.39,-1.44,0.37,-0.06,0.65,0.00
18.901,0.02,0.28,0.85,0.00,0.39,-1.44,0.37,-0.06,0.65,0.00
18.934,0.02,0.28,0.85,0.00,0.39,-1.44,0.58,0.15,0.29,0.00
18.936,0.02,0.28,0.85,-0.32,0.19,-0.35,0.58,0.15,0.29,0.00
18.979,0.01,0.25,1.00,-0.32,0.19,-0.35,0.58,0.15,0.29,0.00
19.0,0.01,0.25,1.00,-0.32,0.19,-0.35,0.04,0.39,0.94,0.00
19.003,0.01,0.25,1.00,0.07,-0.24,0.52,0.04,0.39,0.94,0.00
19.031,0.02,0.21,1.04,0.07,-0.24,0.52,0.04,0.39,0.94,0.00
19.08,0.02,0.21,1.04,0.07,-0.24,0.52,-0.41,0.32,1.52,0.00
19.081,0.02,0.21,1.04,0.20,-0.43,0.66,-0.41,0.32,1.52,0.00
19.098,0.04,0.21,1.01,0.20,-0.43,0.66,-0.41,0.32,1.52,0.00
19.133,0.04,0.21,1.01,0.20,-0.43,0.66,-0.21,0.08,1.31,0.00
19.134,0.04,0.21,1.01,0.77,0.15,-0.91,-0.21,0.08,1.31,0.00
19.17,0.14,0.23,0.89,0.77,0.15,-0.91,-0.21,0.08,1.31,0.00
19.197,0.14,0.23,0.89,0.77,0.15,-0.91,-0.20,-0.38,1.16,0.00
19.2,0.14,0.23,0.89,0.82,-0.97,1.83,-0.20,-0.38,1.16,0.00
19.229,0.30,0.09,1.06,0.82,-0.97,1.83,-0.20,-0.38,1.16,0.00
19.28,0.30,0.09,1.06,0.82,-0.97,1.83,-0.65,-1.06,1.42,0.00
19.285,0.30,0.09,1.06,1.66,-0.47,0.27,-0.65,-1.06,1.42,0.00
19.297,0.17,0.12,1.01,1.66,-0.47,0.27,-0.65,-1.06,1.42,0.00
19.33,0.17,0.12,1.01,1.66,-0.47,0.27,-0.20,-0.13,0.95,0.00
19.332,0.17,0.12,1.01,-0.49,-0.13,0.54,-0.20,-0.13,0.95,0.00
19.361,0.11,0.10,1.06,-0.49,-0.13,0.54,-0.20,-0.13,0.95,0.00
19.395,0.11,0.10,1.06,-0.49,-0.13,0.54,-0.08,0.52,0.89,0.00
19.397,0.11,0.10,1.06,-0.60,-0.00,0.34,-0.08,0.52,0.89,0.00
19.427,0.13,0.19,0.85,-0.60,-0.00,0.34,-0.08,0.52,0.89,0.00
19.461,0.13,0.19,0.85,-0.60,-0.00,0.34,0.48,0.15,0.14,0.00
19.462,0.13,0.19,0.85,0.28,0.63,-1.11,0.48,0.15,0.14,0.00
19.497,0.12,0.20,0.95,0.28,0.63,-1.11,0.48,0.15,0.14,0.00
19.528,0.12,0.20,0.95,0.28,0.63,-1.11,0.50,0.11,0.17,0.00
19.53,0.12,0.20,0.95,-0.24,0.26,-0.26,0.50,0.11,0.17,0.00
19.559,0.09,0.22,0.94,-0.24,0.26,-0.26,0.50,0.11,0.17,0.00
19.593,0.09,0.22,0.94,-0.24,0.26,-0.26,0.43,0.37,0.40,0.00
19.595,0.09,0.22,0.94,-0.46,0.20,-0.24,0.43,0.37,0.40,0.00
19.625,0.08,0.18,1.02,-0.46,0.20,-0.24,0.43,0.37,0.40,0.00
19.659,0.08,0.18,1.02,-0.46,0.20,-0.24,0.02,0.68,0.97,0.00
19.66,0.08,0.18,1.02,-0.89,-0.26,-0.41,0.02,0.68,0.97,0.00
19.704,-0.01,0.16,0.95,-0.89,-0.26,-0.41,0.02,0.68,0.97,0.00
19.74,-0.01,0.16,0.95,-0.89,-0.26,-0.41,-0.03,0.88,1.26,0.00
19.743,-0.01,0.16,0.95,-0.48,-0.09,-0.52,-0.03,0.88,1.26,0.00
19.758,0.04,0.22,0.88,-0.48,-0.09,-0.52,-0.03,0.88,1.26,0.00
19.794,0.04,0.22,0.88,-0.48,-0.09,-0.52,0.35,0.20,0.83,0.00
19.795,0.04,0.22,0.88,0.37,0.35,-0.76,0.35,0.20,0.83,0.00
19.823,0.11,0.21,1.04,0.37,0.35,-0.76,0.35,0.20,0.83,0.00
19.857,0.11,0.21,1.04,0.37,0.35,-0.76,-0.09,-0.19,0.73,0.00
19.858,0.11,0.21,1.04,0.28,-0.35,1.51,-0.09,-0.19,0.73,0.00
19.893,-0.04,0.19,1.01,0.28,-0.35,1.51,-0.09,-0.19,0.73,0.00
19.925,-0.04,0.19,1.01,0.28,-0.35,1.51,-0.10,0.59,0.78,0.00
19.926,-0.04,0.19,1.01,-0.77,0.00,-0.07,-0.10,0.59,0.78,0.00
19.955,0.04,0.17,1.08,-0.77,0.00,-0.07,-0.10,0.59,0.78,0.00
20.011,0.04,0.17,1.08,-0.77,0.00,-0.07,-0.11,0.25,0.42,0.00
20.012,0.04,0.17,1.08,-0.10,0.07,0.30,-0.11,0.25,0.42,0.00
20.03,-0.02,0.23,0.85,-0.10,0.07,0.30,-0.11,0.25,0.42,0.00
20.055,-0.02,0.23,0.85,-0.10,0.07,0.30,0.50,0.27,0.07,0.00
20.057,-0.02,0.23,0.85,-0.11,0.59,-1.97,0.50,0.27,0.07,0.00
20.095,0.02,0.29,0.74,-0.11,0.59,-1.97,0.50,0.27,0.07,0.00
20.124,0.02,0.29,0.74,-0.11,0.59,-1.97,0.88,-0.27,-0.43,0.00
20.126,0.02,0.29,0.74,0.42,0.15,-2.22,0.88,-0.27,-0.43,0.00
20.153,0.04,0.26,0.77,0.42,0.15,-2.22,0.88,-0.27,-0.43,0.00
20.194,0.04,0.26,0.77,0.42,0.15,-2.22,0.44,-0.17,-0.13,0.00
20.196,0.04,0.26,0.77,-0.27,-0.51,-1.57,0.44,-0.17,-0.13,0.00
20.22,-0.03,0.23,0.85,-0.27,-0.51,-1.57,0.44,-0.17,-0.13,0.00
20.253,-0.03,0.23,0.85,-0.27,-0.51,-1.57,-0.17,0.68,0.60,0.00
20.254,-0.03,0.23,0.85,-0.68,-0.54,-1.19,-0.17,0.68,0.60,0.00
20.303,-0.06,0.25,0.82,-0.68,-0.54,-1.19,-0.17,0.68,0.60,0.00
20.321,-0.06,0.25,0.82,-0.68,-0.54,-1.19,-0.09,0.55,0.54,0.00
20.324,-0.06,0.25,0.82,-0.00,-0.27,-0.81,-0.09,0.55,0.54,0.00
20.351,0.00,0.29,1.04,-0.00,-0.27,-0.81,-0.09,0.55,0.54,0.00
20.393,0.00,0.29,1.04,-0.00,-0.27,-0.81,-0.12,-0.27,0.06,0.00
20.395,0.00,0.29,1.04,0.73,0.49,1.94,-0.12,-0.27,0.06,0.00
20.421,0.27,0.07,1.50,0.73,0.49,1.94,-0.12,-0.27,0.06,0.00
20.451,0.27,0.07,1.50,0.73,0.49,1.94,-1.55,-1.09,0.26,0.00
20.453,0.27,0.07,1.50,1.15,-1.57,4.40,-1.55,-1.09,0.26,0.00
20.501,-0.09,0.08,1.21,1.15,-1.57,4.40,-1.55,-1.09,0.26,0.00
20.519,-0.09,0.08,1.21,1.15,-1.57,4.40,-0.57,0.79,0.71,0.00
20.522,-0.09,0.08,1.21,-1.23,0.75,0.56,-0.57,0.79,0.71,0.00
20.549,0.06,0.17,0.97,-1.23,0.75,0.56,-0.57,0.79,0.71,0.00
20.599,0.06,0.17,0.97,-1.23,0.75,0.56,0.07,-0.18,0.11,0.00
20.601,0.06,0.17,0.97,1.15,-0.03,0.83,0.07,-0.18,0.11,0.00
20.616,0.11,0.08,1.16,1.15,-0.03,0.83,0.07,-0.18,0.11,0.00
20.649,0.11,0.08,1.16,1.15,-0.03,0.83,-0.42,-0.41,0.22,0.00
20.651,0.11,0.08,1.16,0.06,-0.41,1.73,-0.42,-0.41,0.22,0.00
20.691,0.03,0.10,1.04,0.06,-0.41,1.73,-0.42,-0.41,0.22,0.00
20.728,0.03,0.10,1.04,0.06,-0.41,1.73,0.02,-0.04,0.31,0.00
20.73,0.03,0.10,1.04,0.13,0.50,-2.12,0.02,-0.04,0.31,0.00
20.75,0.09,0.20,0.61,0.13,0.50,-2.12,0.02,-0.04,0.31,0.00
20.787,0.09,0.20,0.61,0.13,0.50,-2.12,0.93,-0.69,-0.30,0.00
20.788,0.09,0.20,0.61,0.87,0.72,-4.34,0.93,-0.69,-0.30,0.00
20.818,0.10,0.27,0.55,0.87,0.72,-4.34,0.93,-0.69,-0.30,0.00
20.847,0.10,0.27,0.55,0.87,0.72,-4.34,1.37,-0.72,-0.66,0.00
20.848,0.10,0.27,0.55,-0.38,-0.09,-2.42,1.37,-0.72,-0.66,0.00
20.896,-0.03,0.21,0.91,-0.38,-0.09,-2.42,1.37,-0.72,-0.66,0.00
20.928,-0.03,0.21,0.91,-0.38,-0.09,-2.42,0.14,1.17,0.65,0.00
20.93,-0.03,0.21,0.91,-0.69,-0.53,-0.24,0.14,1.17,0.65,0.00
20.945,0.03,0.21,1.01,-0.69,-0.53,-0.24,0.14,1.17,0.65,0.00
20.986,0.03,0.21,1.01,-0.69,-0.53,-0.24,-0.39,0.54,0.51,0.00
20.987,0.03,0.21,1.01,-0.19,-0.05,1.70,-0.39,0.54,0.51,0.00
21.014,0.01,0.29,1.21,-0.19,-0.05,1.70,-0.39,0.54,0.51,0.00
21.045,0.01,0.29,1.21,-0.19,-0.05,1.70,-0.05,0.35,0.29,0.00
21.046,0.01,0.29,1.21,-0.26,0.54,0.90,-0.05,0.35,0.29,0.00
21.081,0.03,0.31,0.91,-0.26,0.54,0.90,-0.05,0.35,0.29,0.00
21.113,0.03,0.31,0.91,-0.26,0.54,0.90,0.45,0.04,-0.04,0.00
21.114,0.03,0.31,0.91,0.12,0.27,0.56,0.45,0.04,-0.04,0.00
21.143,0.03,0.24,1.16,0.12,0.27,0.56,0.45,0.04,-0.04,0.00
21.144,0.03,0.24,1.16,0.12,0.27,0.56,0.45,0.04,-0.04,0.00
21.145,0.03,0.24,1.16,0.12,0.27,0.56,0.45,0.04,-0.04,0.00
21.145,0.03,0.24,1.16,0.12,0.27,0.56,0.45,0.04,-0.04,0.00
21.145,0.03,0.24,1.16,0.12,0.27,0.56,0.45,0.04,-0.04,0.00
21.146,0.03,0.24,1.16,0.12,0.27,0.56,0.45,0.04,-0.04,0.00
21.153,0.02,0.20,1.25,0.12,0.27,0.56,0.45,0.04,-0.04,0.00
21.163,0.03,0.17,1.27,0.12,0.27,0.56,0.45,0.04,-0.04,0.00
21.182,0.03,0.15,1.27,0.12,0.27,0.56,0.45,0.04,-0.04,0.00
21.183,0.03,0.15,1.27,0.12,0.27,0.56,-0.47,-0.02,-0.02,0.00
21.184,0.03,0.15,1.27,0.12,0.27,0.56,-0.47,-0.02,-0.02,0.00
21.184,0.03,0.15,1.27,0.12,0.27,0.56,-0.47,-0.02,-0.02,0.00
21.184,0.03,0.15,1.27,0.12,0.27,0.56,-0.47,-0.02,-0.02,0.00
21.185,0.03,0.15,1.27,0.12,0.27,0.56,-0.47,-0.02,-0.02,0.00
21.185,0.03,0.15,1.27,0.12,0.27,0.56,-0.47,-0.02,-0.02,0.00
21.185,0.03,0.15,1.27,0.12,0.27,0.56,-0.47,-0.02,-0.02,0.00
21.186,0.05,0.14,1.23,0.12,0.27,0.56,-0.47,-0.02,-0.02,0.00
21.197,0.05,0.14,1.23,0.12,0.27,0.56,-0.63,-0.03,0.02,0.00
21.199,0.08,0.13,1.16,0.12,0.27,0.56,-0.63,-0.03,0.02,0.00
21.199,0.08,0.13,1.16,0.12,0.27,0.56,-0.74,-0.09,0.04,0.00
21.204,0.13,0.13,1.07,0.12,0.27,0.56,-0.74,-0.09,0.04,0.00
21.207,0.13,0.13,1.07,0.12,0.27,0.56,-0.79,-0.22,-0.02,0.00
21.213,0.17,0.13,0.99,0.12,0.27,0.56,-0.79,-0.22,-0.02,0.00
21.216,0.17,0.13,0.99,0.12,0.27,0.56,-0.79,-0.41,-0.14,0.00
21.223,0.20,0.14,0.93,0.12,0.27,0.56,-0.79,-0.41,-0.14,0.00
21.227,0.20,0.14,0.93,0.12,0.27,0.56,-0.74,-0.62,-0.30,0.00
21.227,0.20,0.14,0.93,1.49,-0.56,-0.54,-0.74,-0.62,-0.30,0.00
21.233,0.20,0.14,0.87,1.49,-0.56,-0.54,-0.74,-0.62,-0.30,0.00
21.237,0.20,0.14,0.87,1.49,-0.56,-0.54,-0.66,-0.82,-0.44,0.00
21.243,0.19,0.15,0.81,1.49,-0.56,-0.54,-0.66,-0.82,-0.44,0.00
21.247,0.19,0.15,0.81,1.49,-0.56,-0.54,-0.57,-0.97,-0.58,0.00
21.254,0.16,0.16,0.77,1.49,-0.56,-0.54,-0.57,-0.97,-0.58,0.00
21.257,0.16,0.16,0.77,1.49,-0.56,-0.54,-0.46,-1.04,-0.68,0.00
21.263,0.13,0.16,0.75,1.49,-0.56,-0.54,-0.46,-1.04,-0.68,0.00
21.266,0.13,0.16,0.75,1.49,-0.56,-0.54,-0.35,-1.03,-0.73,0.00
21.273,0.10,0.16,0.75,1.49,-0.56,-0.54,-0.35,-1.03,-0.73,0.00
21.277,0.10,0.16,0.75,1.49,-0.56,-0.54,-0.25,-0.95,-0.72,0.00
21.283,0.08,0.17,0.76,1.49,-0.56,-0.54,-0.25,-0.95,-0.72,0.00
21.296,0.08,0.17,0.76,1.49,-0.56,-0.54,-0.17,-0.81,-0.70,0.00
21.297,0.08,0.17,0.76,-0.18,-0.16,-2.16,-0.17,-0.81,-0.70,0.00
21.298,0.06,0.17,0.77,-0.18,-0.16,-2.16,-0.17,-0.81,-0.70,0.00
21.298,0.06,0.17,0.77,-0.18,-0.16,-2.16,-0.09,-0.65,-0.65,0.00
21.312,0.05,0.17,0.77,-0.18,-0.16,-2.16,-0.09,-0.65,-0.65,0.00
21.314,0.05,0.17,0.77,-0.18,-0.16,-2.16,-0.03,-0.49,-0.62,0.00
21.314,0.03,0.18,0.75,-0.18,-0.16,-2.16,-0.03,-0.49,-0.62,0.00
21.317,0.03,0.18,0.75,-0.18,-0.16,-2.16,0.03,-0.31,-0.57,0.00
21.323,0.01,0.19,0.74,-0.18,-0.16,-2.16,0.03,-0.31,-0.57,0.00
21.327,0.01,0.19,0.74,-0.18,-0.16,-2.16,0.10,-0.14,-0.51,0.00
21.333,0.01,0.20,0.71,-0.18,-0.16,-2.16,0.10,-0.14,-0.51,0.00
21.337,0.01,0.20,0.71,-0.18,-0.16,-2.16,0.18,0.01,-0.47,0.00
21.343,0.00,0.20,0.68,-0.18,-0.16,-2.16,0.18,0.01,-0.47,0.00
21.347,0.00,0.20,0.68,-0.18,-0.16,-2.16,0.27,0.14,-0.46,0.00
21.347,0.00,0.20,0.68,-0.85,0.01,-2.92,0.27,0.14,-0.46,0.00
21.353,0.01,0.21,0.66,-0.85,0.01,-2.92,0.27,0.14,-0.46,0.00
21.357,0.01,0.21,0.66,-0.85,0.01,-2.92,0.36,0.23,-0.46,0.00
21.363,0.01,0.22,0.65,-0.85,0.01,-2.92,0.36,0.23,-0.46,0.00
21.37,0.01,0.22,0.65,-0.85,0.01,-2.92,0.45,0.27,-0.48,0.00
21.373,0.01,0.22,0.62,-0.85,0.01,-2.92,0.45,0.27,-0.48,0.00
21.377,0.01,0.22,0.62,-0.85,0.01,-2.92,0.54,0.28,-0.54,0.00
21.383,0.00,0.23,0.61,-0.85,0.01,-2.92,0.54,0.28,-0.54,0.00
21.387,0.00,0.23,0.61,-0.85,0.01,-2.92,0.64,0.31,-0.55,0.00
21.393,-0.01,0.24,0.63,-0.85,0.01,-2.92,0.64,0.31,-0.55,0.00
21.397,-0.01,0.24,0.63,-0.85,0.01,-2.92,0.74,0.33,-0.59,0.00
21.411,0.02,0.24,0.76,-0.85,0.01,-2.92,0.74,0.33,-0.59,0.00
21.413,0.02,0.24,0.76,-0.85,0.01,-2.92,0.75,0.32,-0.61,0.00
21.413,0.02,0.24,0.76,-0.35,-0.04,-2.01,0.75,0.32,-0.61,0.00
21.413,0.02,0.24,0.76,-0.35,-0.04,-2.01,0.75,0.32,-0.61,0.00
21.417,0.02,0.24,0.76,-0.35,-0.04,-2.01,0.73,0.29,-0.61,0.00
21.426,0.05,0.23,0.85,-0.35,-0.04,-2.01,0.73,0.29,-0.61,0.00
21.427,0.05,0.23,0.85,-0.35,-0.04,-2.01,0.63,0.22,-0.61,0.00
21.433,0.05,0.22,0.93,-0.35,-0.04,-2.01,0.63,0.22,-0.61,0.00
21.437,0.05,0.22,0.93,-0.35,-0.04,-2.01,0.47,0.15,-0.60,0.00
21.443,0.03,0.21,0.98,-0.35,-0.04,-2.01,0.47,0.15,-0.60,0.00
21.447,0.03,0.21,0.98,-0.35,-0.04,-2.01,0.27,0.12,-0.53,0.00
21.453,0.00,0.22,1.04,-0.35,-0.04,-2.01,0.27,0.12,-0.53,0.00
21.457,0.00,0.22,1.04,-0.35,-0.04,-2.01,0.08,0.18,-0.39,0.00
21.463,-0.02,0.22,1.10,-0.35,-0.04,-2.01,0.08,0.18,-0.39,0.00
21.468,-0.02,0.22,1.10,-0.35,-0.04,-2.01,-0.10,0.30,-0.24,0.00
21.469,-0.02,0.22,1.10,-0.61,-0.31,1.34,-0.10,0.30,-0.24,0.00
21.473,-0.04,0.23,1.16,-0.61,-0.31,1.34,-0.10,0.30,-0.24,0.00
21.477,-0.04,0.23,1.16,-0.61,-0.31,1.34,-0.23,0.45,-0.11,0.00
21.483,-0.05,0.23,1.20,-0.61,-0.31,1.34,-0.23,0.45,-0.11,0.00
21.487,-0.05,0.23,1.20,-0.61,-0.31,1.34,-0.34,0.59,0.04,0.00
21.493,-0.05,0.23,1.25,-0.61,-0.31,1.34,-0.34,0.59,0.04,0.00
21.497,-0.05,0.23,1.25,-0.61,-0.31,1.34,-0.42,0.68,0.14,0.00
21.51,-0.07,0.26,1.30,-0.61,-0.31,1.34,-0.42,0.68,0.14,0.00
21.511,-0.07,0.26,1.30,-0.61,-0.31,1.34,-0.46,0.75,0.23,0.00
21.513,-0.09,0.32,1.34,-0.61,-0.31,1.34,-0.46,0.75,0.23,0.00
21.525,-0.09,0.32,1.34,-0.61,-0.31,1.34,-0.40,0.79,0.23,0.00
21.527,-0.05,0.31,1.31,-0.61,-0.31,1.34,-0.40,0.79,0.23,0.00
21.528,-0.05,0.31,1.31,-0.61,-0.31,1.34,-0.32,0.76,0.20,0.00
21.529,-0.05,0.31,1.31,-0.48,0.82,3.29,-0.32,0.76,0.20,0.00
21.535,-0.01,0.29,1.24,-0.48,0.82,3.29,-0.32,0.76,0.20,0.00
21.54,-0.01,0.29,1.24,-0.48,0.82,3.29,-0.24,0.63,0.07,0.00
21.543,0.04,0.26,1.22,-0.48,0.82,3.29,-0.24,0.63,0.07,0.00
21.547,0.04,0.26,1.22,-0.48,0.82,3.29,-0.21,0.42,-0.04,0.00
21.553,0.08,0.24,1.26,-0.48,0.82,3.29,-0.21,0.42,-0.04,0.00
21.557,0.08,0.24,1.26,-0.48,0.82,3.29,-0.22,0.16,-0.16,0.00
21.563,0.10,0.21,1.35,-0.48,0.82,3.29,-0.22,0.16,-0.16,0.00
21.57,0.10,0.21,1.35,-0.48,0.82,3.29,-0.29,-0.09,-0.27,0.00
21.573,0.09,0.17,1.42,-0.48,0.82,3.29,-0.29,-0.09,-0.27,0.00
21.577,0.09,0.17,1.42,-0.48,0.82,3.29,-0.43,-0.27,-0.31,0.00
21.595,0.05,0.12,1.49,-0.48,0.82,3.29,-0.43,-0.27,-0.31,0.00
21.597,0.05,0.12,1.49,-0.48,0.82,3.29,-0.62,-0.32,-0.25,0.00
21.598,0.05,0.12,1.49,0.36,-0.78,5.03,-0.62,-0.32,-0.25,0.00
21.598,-0.03,0.10,1.56,0.36,-0.78,5.03,-0.62,-0.32,-0.25,0.00
21.599,-0.03,0.10,1.56,0.36,-0.78,5.03,-0.81,-0.23,-0.09,0.00
21.617,-0.12,0.08,1.60,0.36,-0.78,5.03,-0.81,-0.23,-0.09,0.00
21.618,-0.12,0.08,1.60,0.36,-0.78,5.03,-0.97,-0.01,0.10,0.00
21.619,-0.19,0.10,1.60,0.36,-0.78,5.03,-0.97,-0.01,0.10,0.00
21.619,-0.19,0.10,1.60,0.36,-0.78,5.03,-1.07,0.29,0.31,0.00
21.623,-0.21,0.11,1.56,0.36,-0.78,5.03,-1.07,0.29,0.31,0.00
21.626,-0.21,0.11,1.56,0.36,-0.78,5.03,-1.08,0.57,0.50,0.00
21.633,-0.16,0.12,1.48,0.36,-0.78,5.03,-1.08,0.57,0.50,0.00
21.637,-0.16,0.12,1.48,0.36,-0.78,5.03,-1.03,0.74,0.59,0.00
21.643,-0.09,0.15,1.37,0.36,-0.78,5.03,-1.03,0.74,0.59,0.00
21.647,-0.09,0.15,1.37,0.36,-0.78,5.03,-0.91,0.75,0.53,0.00
21.647,-0.09,0.15,1.37,-0.63,0.11,3.71,-0.91,0.75,0.53,0.00
21.653,-0.02,0.19,1.23,-0.63,0.11,3.71,-0.91,0.75,0.53,0.00
21.657,-0.02,0.19,1.23,-0.63,0.11,3.71,-0.73,0.63,0.41,0.00
21.663,0.04,0.23,1.05,-0.63,0.11,3.71,-0.73,0.63,0.41,0.00
21.668,0.04,0.23,1.05,-0.63,0.11,3.71,-0.47,0.41,0.17,0.00
21.691,0.07,0.27,0.89,-0.63,0.11,3.71,-0.47,0.41,0.17,0.00
21.693,0.07,0.27,0.89,-0.63,0.11,3.71,-0.18,0.16,-0.07,0.00
21.694,0.07,0.27,0.89,-0.63,0.11,3.71,-0.18,0.16,-0.07,0.00
21.697,0.07,0.27,0.89,-0.63,0.11,3.71,0.30,-0.25,-0.46,0.00
21.697,0.07,0.27,0.89,0.91,1.17,-0.94,0.30,-0.25,-0.46,0.00
21.74,0.18,0.20,1.06,0.91,1.17,-0.94,0.30,-0.25,-0.46,0.00
21.763,0.18,0.20,1.06,0.91,1.17,-0.94,0.36,-1.27,-0.85,0.00
21.764,0.18,0.20,1.06,0.63,-0.17,1.32,0.36,-1.27,-0.85,0.00
21.805,0.17,0.21,0.72,0.63,-0.17,1.32,0.36,-1.27,-0.85,0.00
21.837,0.17,0.21,0.72,0.63,-0.17,1.32,0.31,-1.15,-0.73,0.00
21.838,0.17,0.21,0.72,0.69,0.01,-3.55,0.31,-1.15,-0.73,0.00
21.872,0.12,0.22,0.54,0.69,0.01,-3.55,0.31,-1.15,-0.73,0.00
21.901,0.12,0.22,0.54,0.69,0.01,-3.55,0.73,-0.52,-0.62,0.00
21.904,0.12,0.22,0.54,-0.88,-0.43,-3.80,0.73,-0.52,-0.62,0.00
21.939,0.05,0.24,0.72,-0.88,-0.43,-3.80,0.73,-0.52,-0.62,0.00
21.961,0.05,0.24,0.72,-0.88,-0.43,-3.80,0.56,0.72,0.17,0.00
21.965,0.05,0.24,0.72,-0.59,-0.60,-2.28,0.56,0.72,0.17,0.00
22.006,0.23,0.17,1.03,-0.59,-0.60,-2.28,0.56,0.72,0.17,0.00
22.029,0.23,0.17,1.03,-0.59,-0.60,-2.28,-0.84,0.00,0.94,0.00
22.03,0.23,0.17,1.03,-0.39,-1.05,2.35,-0.84,0.00,0.94,0.00
22.069,-0.10,0.27,1.07,-0.39,-1.05,2.35,-0.84,0.00,0.94,0.00
22.102,-0.10,0.27,1.07,-0.39,-1.05,2.35,0.15,1.68,1.24,0.00
22.104,-0.10,0.27,1.07,-1.22,1.12,-0.70,0.15,1.68,1.24,0.00
22.135,0.28,0.17,1.14,-1.22,1.12,-0.70,0.15,1.68,1.24,0.00
22.159,0.28,0.17,1.14,-1.22,1.12,-0.70,-0.16,-1.01,-0.16,0.00
22.161,0.28,0.17,1.14,1.93,-0.65,1.68,-0.16,-1.01,-0.16,0.00
22.204,0.16,0.20,1.02,1.93,-0.65,1.68,-0.16,-1.01,-0.16,0.00
22.227,0.16,0.20,1.02,1.93,-0.65,1.68,-0.34,-0.48,-0.17,0.00
22.23,0.16,0.20,1.02,0.03,0.19,1.35,-0.34,-0.48,-0.17,0.00
22.267,0.08,0.26,0.94,0.03,0.19,1.35,-0.34,-0.48,-0.17,0.00
22.3,0.08,0.26,0.94,0.03,0.19,1.35,0.18,0.10,-0.38,0.00
22.305,0.08,0.26,0.94,-0.18,0.50,-0.97,0.18,0.10,-0.38,0.00
22.333,0.08,0.24,0.98,-0.18,0.50,-0.97,0.18,0.10,-0.38,0.00
22.357,0.08,0.24,0.98,-0.18,0.50,-0.97,0.14,0.20,-0.45,0.00
22.359,0.08,0.24,0.98,-0.52,0.05,0.29,0.14,0.20,-0.45,0.00
22.404,0.05,0.22,0.98,-0.52,0.05,0.29,0.14,0.20,-0.45,0.00
22.429,0.05,0.22,0.98,-0.52,0.05,0.29,-0.08,0.37,-0.11,0.00
22.43,0.05,0.22,0.98,-0.32,-0.04,0.98,-0.08,0.37,-0.11,0.00
22.465,0.07,0.24,1.08,-0.32,-0.04,0.98,-0.08,0.37,-0.11,0.00
22.489,0.07,0.24,1.08,-0.32,-0.04,0.98,-0.03,0.12,-0.09,0.00
22.491,0.07,0.24,1.08,-0.11,0.64,-0.71,-0.03,0.12,-0.09,0.00
22.54,0.04,0.21,1.14,-0.11,0.64,-0.71,-0.03,0.12,-0.09,0.00
22.555,0.04,0.21,1.14,-0.11,0.64,-0.71,-0.11,0.24,0.32,0.00
22.556,0.04,0.21,1.14,-0.16,-0.20,1.69,-0.11,0.24,0.32,0.00
22.599,0.14,0.28,0.89,-0.16,-0.20,1.69,-0.11,0.24,0.32,0.00
22.625,0.14,0.28,0.89,-0.16,-0.20,1.69,0.20,-0.37,-0.35,0.00
22.627,0.14,0.28,0.89,1.41,0.10,0.68,0.20,-0.37,-0.35,0.00
22.663,0.19,0.18,1.25,1.41,0.10,0.68,0.20,-0.37,-0.35,0.00
22.687,0.19,0.18,1.25,1.41,0.10,0.68,-0.52,-0.69,-0.06,0.00
22.688,0.19,0.18,1.25,0.63,-0.09,1.66,-0.52,-0.69,-0.06,0.00
22.744,0.21,0.26,0.94,0.63,-0.09,1.66,-0.52,-0.69,-0.06,0.00
22.753,0.21,0.26,0.94,0.63,-0.09,1.66,0.06,-0.62,-0.60,0.00
22.754,0.21,0.26,0.94,0.13,0.48,-0.97,0.06,-0.62,-0.60,0.00
22.798,0.06,0.23,0.81,0.13,0.48,-0.97,0.06,-0.62,-0.60,0.00
22.824,0.06,0.23,0.81,0.13,0.48,-0.97,0.33,0.19,-0.23,0.00
22.825,0.06,0.23,0.81,-0.95,-0.32,-0.42,0.33,0.19,-0.23,0.00
22.861,-0.01,0.14,1.10,-0.95,-0.32,-0.42,0.33,0.19,-0.23,0.00
22.885,-0.01,0.14,1.10,-0.95,-0.32,-0.42,-0.46,1.19,1.36,0.00
22.886,-0.01,0.14,1.10,-0.43,-0.75,1.76,-0.46,1.19,1.36,0.00
22.927,0.11,0.21,1.02,-0.43,-0.75,1.76,-0.46,1.19,1.36,0.00
22.951,0.11,0.21,1.02,-0.43,-0.75,1.76,-0.19,0.25,0.71,0.00
22.954,0.11,0.21,1.02,0.21,0.63,-1.17,-0.19,0.25,0.71,0.00
23.008,0.13,0.23,1.01,0.21,0.63,-1.17,-0.19,0.25,0.71,0.00
23.024,0.13,0.23,1.01,0.21,0.63,-1.17,0.12,-0.12,0.13,0.00
23.026,0.13,0.23,1.01,-0.10,-0.06,1.31,0.12,-0.12,0.13,0.00
23.059,-0.04,0.18,1.22,-0.10,-0.06,1.31,0.12,-0.12,0.13,0.00
23.083,-0.04,0.18,1.22,-0.10,-0.06,1.31,-0.31,0.86,0.86,0.00
23.084,-0.04,0.18,1.22,-0.58,0.30,1.08,-0.31,0.86,0.86,0.00
23.125,0.01,0.26,0.79,-0.58,0.30,1.08,-0.31,0.86,0.86,0.00
23.149,0.01,0.26,0.79,-0.58,0.30,1.08,0.40,0.34,0.02,0.00
23.152,0.01,0.26,0.79,-0.13,0.81,-2.52,0.40,0.34,0.02,0.00
23.211,-0.03,0.26,0.83,-0.13,0.81,-2.52,0.40,0.34,0.02,0.00
23.231,-0.03,0.26,0.83,-0.13,0.81,-2.52,0.72,0.18,-0.27,0.00
23.238,-0.03,0.26,0.83,-0.96,0.41,-1.96,0.72,0.18,-0.27,0.00
23.257,-0.08,0.29,0.82,-0.96,0.41,-1.96,0.72,0.18,-0.27,0.00
23.281,-0.08,0.29,0.82,-0.96,0.41,-1.96,0.66,0.85,0.44,0.00
23.283,-0.08,0.29,0.82,-0.31,-0.07,-1.30,0.66,0.85,0.44,0.00
23.324,0.04,0.35,0.98,-0.31,-0.07,-1.30,0.66,0.85,0.44,0.00
23.347,0.04,0.35,0.98,-0.31,-0.07,-1.30,0.31,-0.55,-0.03,0.00
23.349,0.04,0.35,0.98,1.58,-0.00,0.82,0.31,-0.55,-0.03,0.00
23.41,0.13,0.29,1.02,1.58,-0.00,0.82,0.31,-0.55,-0.03,0.00
23.434,0.13,0.29,1.02,1.58,-0.00,0.82,-0.25,-1.00,0.29,0.00
23.436,0.13,0.29,1.02,0.43,-0.19,-1.35,-0.25,-1.00,0.29,0.00
23.455,0.15,0.32,0.85,0.43,-0.19,-1.35,-0.25,-1.00,0.29,0.00
23.479,0.15,0.32,0.85,0.43,-0.19,-1.35,0.10,-0.89,0.22,0.00
23.483,0.15,0.32,0.85,1.13,-0.25,-0.19,0.10,-0.89,0.22,0.00
23.522,0.00,0.23,0.97,1.13,-0.25,-0.19,0.10,-0.89,0.22,0.00
23.545,0.00,0.23,0.97,1.13,-0.25,-0.19,-0.41,0.62,0.99,0.00
23.548,0.00,0.23,0.97,-1.23,-0.54,0.63,-0.41,0.62,0.99,0.00
23.6,-0.04,0.27,0.91,-1.23,-0.54,0.63,-0.41,0.62,0.99,0.00
23.617,-0.04,0.27,0.91,-1.23,-0.54,0.63,-0.06,1.14,1.04,0.00
23.62,-0.04,0.27,0.91,-0.62,0.20,-1.38,-0.06,1.14,1.04,0.00
23.653,-0.07,0.24,0.79,-0.62,0.20,-1.38,-0.06,1.14,1.04,0.00
23.677,-0.07,0.24,0.79,-0.62,0.20,-1.38,0.01,1.29,1.15,0.00
23.678,-0.07,0.24,0.79,-1.20,-0.82,-1.19,0.01,1.29,1.15,0.00
23.72,-0.21,0.30,0.83,-1.20,-0.82,-1.19,0.01,1.29,1.15,0.00
23.743,-0.21,0.30,0.83,-1.20,-0.82,-1.19,0.02,1.84,1.83,0.00
23.745,-0.21,0.30,0.83,-0.42,0.94,0.35,0.02,1.84,1.83,0.00
23.792,0.08,0.37,1.24,-0.42,0.94,0.35,0.02,1.84,1.83,0.00
23.818,0.08,0.37,1.24,-0.42,0.94,0.35,0.17,-0.87,0.18,0.00
23.823,0.08,0.37,1.24,2.90,0.52,2.15,0.17,-0.87,0.18,0.00
23.851,0.31,0.25,1.20,2.90,0.52,2.15,0.17,-0.87,0.18,0.00
23.875,0.31,0.25,1.20,2.90,0.52,2.15,-0.61,-2.01,-0.58,0.00
23.876,0.31,0.25,1.20,0.82,-0.66,2.03,-0.61,-2.01,-0.58,0.00
23.917,-0.15,0.16,1.40,0.82,-0.66,2.03,-0.61,-2.01,-0.58,0.00
23.941,-0.15,0.16,1.40,0.82,-0.66,2.03,-1.05,1.00,1.40,0.00
23.943,-0.15,0.16,1.40,-1.80,-0.30,4.10,-1.05,1.00,1.40,0.00
24.0,0.03,0.24,1.00,-1.80,-0.30,4.10,-1.05,1.00,1.40,0.00
24.013,0.03,0.24,1.00,-1.80,-0.30,4.10,0.06,0.41,0.80,0.00
24.016,0.03,0.24,1.00,0.48,0.59,-0.63,0.06,0.41,0.80,0.00
24.049,0.01,0.23,0.70,0.48,0.59,-0.63,0.06,0.41,0.80,0.00
24.073,0.01,0.23,0.70,0.48,0.59,-0.63,0.59,0.08,0.58,0.00
24.074,0.01,0.23,0.70,-0.05,-0.01,-3.15,0.59,0.08,0.58,0.00
24.116,-0.06,0.21,0.62,-0.05,-0.01,-3.15,0.59,0.08,0.58,0.00
24.139,-0.06,0.21,0.62,-0.05,-0.01,-3.15,0.70,1.07,1.69,0.00
24.142,-0.06,0.21,0.62,-0.85,-0.39,-4.01,0.70,1.07,1.69,0.00
24.181,-0.12,0.25,0.59,-0.85,-0.39,-4.01,0.70,1.07,1.69,0.00
24.21,-0.12,0.25,0.59,-0.85,-0.39,-4.01,0.63,2.03,2.72,0.00
24.212,-0.12,0.25,0.59,-0.30,-0.76,-2.51,0.63,2.03,2.72,0.00
24.247,0.02,0.28,0.90,-0.30,-0.76,-2.51,0.63,2.03,2.72,0.00
24.274,0.02,0.28,0.90,-0.30,-0.76,-2.51,-0.11,-0.44,0.38,0.00
24.275,0.02,0.28,0.90,2.27,-0.19,4.21,-0.11,-0.44,0.38,0.00
24.328,0.32,0.23,1.72,2.27,-0.19,4.21,-0.11,-0.44,0.38,0.00
24.337,0.32,0.23,1.72,2.27,-0.19,4.21,-1.52,-2.17,-1.18,0.00
24.338,0.32,0.23,1.72,1.93,-0.26,8.45,-1.52,-2.17,-1.18,0.00
24.379,0.35,0.21,1.86,1.93,-0.26,8.45,-1.52,-2.17,-1.18,0.00
24.412,0.35,0.21,1.86,1.93,-0.26,8.45,-1.08,-0.89,-0.02,0.00
24.419,0.35,0.21,1.86,2.42,1.33,4.34,-1.08,-0.89,-0.02,0.00
24.445,0.41,0.34,0.83,2.42,1.33,4.34,-1.08,-0.89,-0.02,0.00
24.469,0.41,0.34,0.83,2.42,1.33,4.34,0.56,-1.46,-0.50,0.00
24.476,0.41,0.34,0.83,2.13,1.45,-0.61,0.56,-1.46,-0.50,0.00
24.53,0.26,0.24,1.08,2.13,1.45,-0.61,0.56,-1.46,-0.50,0.00
24.535,0.26,0.24,1.08,2.13,1.45,-0.61,0.28,-0.39,0.01,0.00
24.535,0.26,0.24,1.08,-0.27,-0.11,1.24,0.28,-0.39,0.01,0.00
24.577,0.20,0.13,0.83,-0.27,-0.11,1.24,0.28,-0.39,0.01,0.00
24.632,0.20,0.13,0.83,-0.27,-0.11,1.24,-0.11,-0.01,0.22,0.00
24.634,0.20,0.13,0.83,-0.75,-0.61,-3.35,-0.11,-0.01,0.22,0.00
24.643,0.05,0.15,0.56,-0.75,-0.61,-3.35,-0.11,-0.01,0.22,0.00
24.667,0.05,0.15,0.56,-0.75,-0.61,-3.35,0.38,0.64,0.76,0.00
24.668,0.05,0.15,0.56,-1.68,-0.44,-3.34,0.38,0.64,0.76,0.00
24.715,0.17,0.17,0.71,-1.68,-0.44,-3.34,0.38,0.64,0.76,0.00
24.74,0.17,0.17,0.71,-1.68,-0.44,-3.34,0.35,0.43,0.68,0.00
24.742,0.17,0.17,0.71,-0.38,-0.25,-2.31,0.35,0.43,0.68,0.00
24.775,0.06,0.24,0.79,-0.38,-0.25,-2.31,0.35,0.43,0.68,0.00
24.826,0.06,0.24,0.79,-0.38,-0.25,-2.31,0.82,1.37,1.54,0.00
24.829,0.06,0.24,0.79,-1.64,0.25,-1.13,0.82,1.37,1.54,0.00
24.842,-0.10,0.36,1.13,-1.64,0.25,-1.13,0.82,1.37,1.54,0.00
24.865,-0.10,0.36,1.13,-1.64,0.25,-1.13,0.61,2.40,2.33,0.00
24.867,-0.10,0.36,1.13,-0.80,0.75,2.52,0.61,2.40,2.33,0.00
24.92,0.06,0.38,1.22,-0.80,0.75,2.52,0.61,2.40,2.33,0.00
24.932,0.06,0.38,1.22,-0.80,0.75,2.52,0.09,0.45,1.13,0.00
24.933,0.06,0.38,1.22,1.18,0.67,2.99,0.09,0.45,1.13,0.00
24.973,0.18,0.32,1.18,1.18,0.67,2.99,0.09,0.45,1.13,0.00
25.012,0.18,0.32,1.18,1.18,0.67,2.99,-0.19,-0.77,0.31,0.00
25.014,0.18,0.32,1.18,1.06,0.22,1.60,-0.19,-0.77,0.31,0.00
25.04,0.00,0.27,1.06,1.06,0.22,1.60,-0.19,-0.77,0.31,0.00
25.063,0.00,0.27,1.06,1.06,0.22,1.60,-0.18,0.68,1.00,0.00
25.065,0.00,0.27,1.06,-1.71,-0.16,0.74,-0.18,0.68,1.00,0.00
25.12,-0.07,0.21,1.07,-1.71,-0.16,0.74,-0.18,0.68,1.00,0.00
25.131,-0.07,0.21,1.07,-1.71,-0.16,0.74,-0.35,1.09,1.18,0.00
25.132,-0.07,0.21,1.07,0.35,-0.50,0.89,-0.35,1.09,1.18,0.00
25.171,0.27,0.21,1.05,0.35,-0.50,0.89,-0.35,1.09,1.18,0.00
25.209,0.27,0.21,1.05,0.35,-0.50,0.89,-0.33,-1.01,0.67,0.00
25.212,0.27,0.21,1.05,1.87,-0.16,0.49,-0.33,-1.01,0.67,0.00
25.243,0.10,0.19,0.94,1.87,-0.16,0.49,-0.33,-1.01,0.67,0.00
25.261,0.10,0.19,0.94,1.87,-0.16,0.49,-0.05,-0.10,1.55,0.00
25.262,0.10,0.19,0.94,-0.40,-0.16,-0.32,-0.05,-0.10,1.55,0.00
25.308,0.02,0.23,0.97,-0.40,-0.16,-0.32,-0.05,-0.10,1.55,0.00
25.327,0.02,0.23,0.97,-0.40,-0.16,-0.32,0.33,0.94,2.66,0.00
25.329,0.02,0.23,0.97,-0.53,0.29,-0.41,0.33,0.94,2.66,0.00
25.369,0.04,0.26,0.99,-0.53,0.29,-0.41,0.33,0.94,2.66,0.00
25.417,0.04,0.26,0.99,-0.53,0.29,-0.41,0.46,1.00,2.82,0.00
25.419,0.04,0.26,0.99,-0.43,0.40,-0.01,0.46,1.00,2.82,0.00
25.435,-0.04,0.28,1.01,-0.43,0.40,-0.01,0.46,1.00,2.82,0.00
25.459,-0.04,0.28,1.01,-0.43,0.40,-0.01,0.33,1.16,2.46,0.00
25.462,-0.04,0.28,1.01,-0.46,0.26,0.37,0.33,1.16,2.46,0.00
25.506,-0.04,0.27,0.94,-0.46,0.26,0.37,0.33,1.16,2.46,0.00
25.53,-0.04,0.27,0.94,-0.46,0.26,0.37,0.17,0.87,1.92,0.00
25.532,-0.04,0.27,0.94,-0.21,-0.07,-0.12,0.17,0.87,1.92,0.00
25.567,-0.05,0.25,1.01,-0.21,-0.07,-0.12,0.17,0.87,1.92,0.00
25.61,-0.05,0.25,1.01,-0.21,-0.07,-0.12,-0.14,0.60,1.28,0.00
25.611,-0.05,0.25,1.01,-0.08,-0.08,0.74,-0.14,0.60,1.28,0.00
25.633,-0.03,0.25,1.11,-0.08,-0.08,0.74,-0.14,0.60,1.28,0.00
25.657,-0.03,0.25,1.11,-0.08,-0.08,0.74,-0.30,0.15,1.10,0.00
25.66,-0.03,0.25,1.11,0.62,0.01,1.15,-0.30,0.15,1.10,0.00
25.714,0.10,0.23,1.05,0.62,0.01,1.15,-0.30,0.15,1.10,0.00
25.723,0.10,0.23,1.05,0.62,0.01,1.15,-0.27,-0.35,1.18,0.00
25.725,0.10,0.23,1.05,0.38,-0.13,1.30,-0.27,-0.35,1.18,0.00
25.766,0.14,0.14,1.28,0.38,-0.13,1.30,-0.27,-0.35,1.18,0.00
25.813,0.14,0.14,1.28,0.38,-0.13,1.30,-0.71,-0.48,0.31,0.00
25.814,0.14,0.14,1.28,1.29,-0.38,2.65,-0.71,-0.48,0.31,0.00
25.833,0.18,0.14,1.06,1.29,-0.38,2.65,-0.71,-0.48,0.31,0.00
25.855,0.18,0.14,1.06,1.29,-0.38,2.65,-0.36,-0.63,0.73,0.00
25.858,0.18,0.14,1.06,0.61,-0.14,0.71,-0.36,-0.63,0.73,0.00
25.913,0.24,0.09,1.24,0.61,-0.14,0.71,-0.36,-0.63,0.73,0.00
25.921,0.24,0.09,1.24,0.61,-0.14,0.71,-0.46,-0.64,0.51,0.00
25.922,0.24,0.09,1.24,1.50,-0.35,2.40,-0.46,-0.64,0.51,0.00
25.963,0.16,0.05,1.01,1.50,-0.35,2.40,-0.46,-0.64,0.51,0.00
26.002,0.16,0.05,1.01,1.50,-0.35,2.40,-0.44,-0.38,-0.01,0.00
26.003,0.16,0.05,1.01,-0.13,-0.32,0.32,-0.44,-0.38,-0.01,0.00
26.03,0.16,0.06,0.92,-0.13,-0.32,0.32,-0.44,-0.38,-0.01,0.00
26.053,0.16,0.06,0.92,-0.13,-0.32,0.32,-0.19,-0.03,-0.14,0.00
26.056,0.16,0.06,0.92,0.18,0.10,-0.97,-0.19,-0.03,-0.14,0.00
26.109,0.24,0.13,0.81,0.18,0.10,-0.97,-0.19,-0.03,-0.14,0.00
26.12,0.24,0.13,0.81,0.18,0.10,-0.97,1.00,-0.41,2.76,0.00
26.122,0.24,0.13,0.81,0.66,0.73,-2.31,1.00,-0.41,2.76,0.00
26.161,0.24,0.21,0.74,0.66,0.73,-2.31,1.00,-0.41,2.76,0.00
26.209,0.24,0.21,0.74,0.66,0.73,-2.31,2.33,0.14,4.91,0.00
26.211,0.24,0.21,0.74,-0.67,0.62,-2.16,2.33,0.14,4.91,0.00
26.228,0.15,0.26,0.74,-0.67,0.62,-2.16,2.33,0.14,4.91,0.00
26.251,0.15,0.26,0.74,-0.67,0.62,-2.16,1.57,0.57,1.49,0.00
26.253,0.15,0.26,0.74,-0.91,0.33,-2.04,1.57,0.57,1.49,0.00
26.309,0.15,0.31,0.67,-0.91,0.33,-2.04,1.57,0.57,1.49,0.00
26.317,0.15,0.31,0.67,-0.91,0.33,-2.04,1.41,0.54,0.76,0.00
26.318,0.15,0.31,0.67,-0.69,0.20,-2.59,1.41,0.54,0.76,0.00
26.359,0.15,0.30,0.90,-0.69,0.20,-2.59,1.41,0.54,0.76,0.00
26.407,0.15,0.30,0.90,-0.69,0.20,-2.59,0.08,0.32,-0.77,0.00
26.408,0.15,0.30,0.90,-0.65,-0.14,0.38,0.08,0.32,-0.77,0.00
26.425,0.04,0.38,1.02,-0.65,-0.14,0.38,0.08,0.32,-0.77,0.00
26.449,0.04,0.38,1.02,-0.65,-0.14,0.38,-0.10,0.52,-1.46,0.00
26.453,0.04,0.38,1.02,-0.84,0.43,0.82,-0.10,0.52,-1.46,0.00
26.496,0.02,0.39,1.12,-0.84,0.43,0.82,-0.10,0.52,-1.46,0.00
26.521,0.02,0.39,1.12,-0.84,0.43,0.82,-0.07,0.43,-1.18,0.00
26.524,0.02,0.39,1.12,-0.76,0.74,1.86,-0.07,0.43,-1.18,0.00
26.557,-0.06,0.44,1.14,-0.76,0.74,1.86,-0.07,0.43,-1.18,0.00
26.596,-0.06,0.44,1.14,-0.76,0.74,1.86,0.05,0.49,-1.16,0.00
26.598,-0.06,0.44,1.14,-0.83,0.82,3.06,0.05,0.49,-1.16,0.00
26.623,-0.10,0.39,1.11,-0.83,0.82,3.06,0.05,0.49,-1.16,0.00
26.647,-0.10,0.39,1.11,-0.83,0.82,3.06,-0.10,0.33,-1.27,0.00
26.649,-0.10,0.39,1.11,-0.58,0.60,1.68,-0.10,0.33,-1.27,0.00
26.689,-0.04,0.22,1.08,-0.58,0.60,1.68,-0.10,0.33,-1.27,0.00
26.731,-0.04,0.22,1.08,-0.58,0.60,1.68,-0.47,-0.09,-0.53,0.00
26.733,-0.04,0.22,1.08,0.03,-0.94,1.31,-0.47,-0.09,-0.53,0.00
26.757,-0.22,0.21,0.84,0.03,-0.94,1.31,-0.47,-0.09,-0.53,0.00
26.783,-0.22,0.21,0.84,0.03,-0.94,1.31,-0.37,0.35,-2.01,0.00
26.784,-0.22,0.21,0.84,-0.45,-0.42,-1.74,-0.37,0.35,-2.01,0.00
26.823,-0.06,0.19,1.06,-0.45,-0.42,-1.74,-0.37,0.35,-2.01,0.00
26.845,-0.06,0.19,1.06,-0.45,-0.42,-1.74,-0.54,-0.41,-1.07,0.00
26.847,-0.06,0.19,1.06,0.50,-0.65,1.28,-0.54,-0.41,-1.07,0.00
26.887,-0.02,0.14,0.79,0.50,-0.65,1.28,-0.54,-0.41,-1.07,0.00
26.924,-0.02,0.14,0.79,0.50,-0.65,1.28,-0.48,-0.81,-1.12,0.00
26.926,-0.02,0.14,0.79,0.46,-0.46,-1.89,-0.48,-0.81,-1.12,0.00
26.953,-0.01,0.18,0.81,0.46,-0.46,-1.89,-0.48,-0.81,-1.12,0.00
26.979,-0.01,0.18,0.81,0.46,-0.46,-1.89,0.09,-0.33,-0.23,0.00
26.981,-0.01,0.18,0.81,0.31,-0.09,-1.29,0.09,-0.33,-0.23,0.00
27.055,-0.15,0.20,0.82,0.31,-0.09,-1.29,0.09,-0.33,-0.23,0.00
27.059,-0.15,0.20,0.82,0.31,-0.09,-1.29,0.22,0.44,-0.30,0.00
27.065,-0.15,0.20,0.82,-1.03,-0.10,-1.09,0.22,0.44,-0.30,0.00
27.085,-0.11,0.23,0.92,-1.03,-0.10,-1.09,0.22,0.44,-0.30,0.00
27.109,-0.11,0.23,0.92,-1.03,-0.10,-1.09,0.10,0.48,0.16,0.00
27.121,-0.11,0.23,0.92,-0.01,0.14,-0.47,0.10,0.48,0.16,0.00
27.151,-0.03,0.32,0.86,-0.01,0.14,-0.47,0.10,0.48,0.16,0.00
27.177,-0.03,0.32,0.86,-0.01,0.14,-0.47,0.53,0.29,2.41,0.00
27.179,-0.03,0.32,0.86,0.64,0.75,-0.70,0.53,0.29,2.41,0.00
27.261,-0.06,0.33,1.02,0.64,0.75,-0.70,0.53,0.29,2.41,0.00
27.263,-0.06,0.33,1.02,0.64,0.75,-0.70,0.28,0.22,1.94,0.00
27.264,-0.06,0.33,1.02,0.27,0.15,1.50,0.28,0.22,1.94,0.00
27.283,0.02,0.29,1.24,0.27,0.15,1.50,0.28,0.22,1.94,0.00
27.307,0.02,0.29,1.24,0.27,0.15,1.50,-0.44,-0.30,1.15,0.00
27.309,0.02,0.29,1.24,0.70,0.04,2.71,-0.44,-0.30,1.15,0.00
27.349,-0.03,0.27,1.05,0.70,0.04,2.71,-0.44,-0.30,1.15,0.00
27.375,-0.03,0.27,1.05,0.70,0.04,2.71,-0.25,-0.05,0.63,0.00
27.376,-0.03,0.27,1.05,0.02,0.22,1.61,-0.25,-0.05,0.63,0.00
27.42,0.08,0.19,1.31,0.02,0.22,1.61,-0.25,-0.05,0.63,0.00
27.444,0.08,0.19,1.31,0.02,0.22,1.61,-0.53,-0.26,0.56,0.00
27.445,0.08,0.19,1.31,0.67,-0.32,3.27,-0.53,-0.26,0.56,0.00
27.481,0.02,0.12,1.11,0.67,-0.32,3.27,-0.53,-0.26,0.56,0.00
27.505,0.02,0.12,1.11,0.67,-0.32,3.27,-0.59,-0.22,-0.73,0.00
27.507,0.02,0.12,1.11,-0.05,-0.17,-0.72,-0.59,-0.22,-0.73,0.00
27.547,0.18,0.20,1.01,-0.05,-0.17,-0.72,-0.59,-0.22,-0.73,0.00
27.574,0.18,0.20,1.01,-0.05,-0.17,-0.72,0.14,-0.53,1.46,0.00
27.576,0.18,0.20,1.01,1.19,0.35,0.15,0.14,-0.53,1.46,0.00
27.627,0.21,0.21,0.82,1.19,0.35,0.15,0.14,-0.53,1.46,0.00
27.637,0.21,0.21,0.82,1.19,0.35,0.15,0.64,-0.57,2.10,0.00
27.638,0.21,0.21,0.82,0.44,0.23,-2.07,0.64,-0.57,2.10,0.00
27.679,0.13,0.21,0.80,0.44,0.23,-2.07,0.64,-0.57,2.10,0.00
27.703,0.13,0.21,0.80,0.44,0.23,-2.07,0.52,-0.12,0.52,0.00
27.704,0.13,0.21,0.80,-0.47,-0.06,-1.63,0.52,-0.12,0.52,0.00
27.745,0.17,0.23,0.75,-0.47,-0.06,-1.63,0.52,-0.12,0.52,0.00
27.773,0.17,0.23,0.75,-0.47,-0.06,-1.63,0.61,-0.17,0.84,0.00
27.774,0.17,0.23,0.75,0.07,-0.16,-2.07,0.61,-0.17,0.84,0.00
27.83,0.16,0.23,0.83,0.07,-0.16,-2.07,0.61,-0.17,0.84,0.00
27.837,0.16,0.23,0.83,0.07,-0.16,-2.07,0.23,-0.12,0.07,0.00
27.838,0.16,0.23,0.83,-0.69,-0.34,-0.97,0.23,-0.12,0.07,0.00
27.877,0.10,0.24,0.91,-0.69,-0.34,-0.97,0.23,-0.12,0.07,0.00
27.901,0.10,0.24,0.91,-0.69,-0.34,-0.97,-0.20,0.20,-1.12,0.00
27.904,0.10,0.24,0.91,-0.59,-0.13,0.08,-0.20,0.20,-1.12,0.00
27.943,0.13,0.25,1.06,-0.59,-0.13,0.08,-0.20,0.20,-1.12,0.00
27.969,0.13,0.25,1.06,-0.59,-0.13,0.08,-0.49,0.08,-1.21,0.00
27.971,0.13,0.25,1.06,-0.21,-0.01,1.74,-0.49,0.08,-1.21,0.00
28.014,0.10,0.25,1.16,-0.21,-0.01,1.74,-0.49,0.08,-1.21,0.00
28.038,0.10,0.25,1.16,-0.21,-0.01,1.74,-0.50,0.08,-1.25,0.00
28.041,0.10,0.25,1.16,-0.10,0.12,1.92,-0.50,0.08,-1.25,0.00
28.075,0.09,0.27,1.10,-0.10,0.12,1.92,-0.50,0.08,-1.25,0.00
28.099,0.09,0.27,1.10,-0.10,0.12,1.92,-0.13,0.08,-0.74,0.00
28.102,0.09,0.27,1.10,-0.36,0.53,1.14,-0.13,0.08,-0.74,0.00
28.141,0.07,0.29,1.08,-0.36,0.53,1.14,-0.13,0.08,-0.74,0.00
28.167,0.07,0.29,1.08,-0.36,0.53,1.14,0.13,0.15,-0.13,0.00
28.169,0.07,0.29,1.08,0.19,0.38,1.48,0.13,0.15,-0.13,0.00
28.22,-0.05,0.19,1.17,0.19,0.38,1.48,0.13,0.15,-0.13,0.00
28.232,-0.05,0.19,1.17,0.19,0.38,1.48,-0.48,0.29,-0.77,0.00
28.233,-0.05,0.19,1.17,-1.08,-0.22,1.86,-0.48,0.29,-0.77,0.00
28.273,-0.07,0.22,0.86,-1.08,-0.22,1.86,-0.48,0.29,-0.77,0.00
28.297,-0.07,0.22,0.86,-1.08,-0.22,1.86,0.06,0.70,-0.38,0.00
28.3,-0.07,0.22,0.86,-0.53,0.13,-1.12,0.06,0.70,-0.38,0.00
28.339,-0.04,0.20,0.97,-0.53,0.13,-1.12,0.06,0.70,-0.38,0.00
28.365,-0.04,0.20,0.97,-0.53,0.13,-1.12,-0.01,0.37,0.32,0.00
28.367,-0.04,0.20,0.97,0.10,-0.14,0.00,-0.01,0.37,0.32,0.00
28.419,0.08,0.21,0.88,0.10,-0.14,0.00,-0.01,0.37,0.32,0.00
28.429,0.08,0.21,0.88,0.10,-0.14,0.00,0.13,-0.19,1.58,0.00
28.43,0.08,0.21,0.88,0.85,0.02,-1.57,0.13,-0.19,1.58,0.00
28.472,0.01,0.22,0.77,0.85,0.02,-1.57,0.13,-0.19,1.58,0.00
28.52,0.01,0.22,0.77,0.85,0.02,-1.57,0.36,-0.01,1.29,0.00
28.522,0.01,0.22,0.77,-0.25,-0.20,-2.00,0.36,-0.01,1.29,0.00
28.555,0.02,0.24,0.79,-0.25,-0.20,-2.00,0.36,-0.01,1.29,0.00
28.565,0.02,0.24,0.79,-0.25,-0.20,-2.00,0.36,0.16,0.85,0.00
28.567,0.02,0.24,0.79,0.11,-0.05,-1.36,0.36,0.16,0.85,0.00
28.619,0.00,0.26,0.93,0.11,-0.05,-1.36,0.36,0.16,0.85,0.00
28.627,0.00,0.26,0.93,0.11,-0.05,-1.36,0.13,0.28,0.40,0.00
28.628,0.00,0.26,0.93,-0.38,-0.07,-0.22,0.13,0.28,0.40,0.00
28.669,-0.02,0.26,1.10,-0.38,-0.07,-0.22,0.13,0.28,0.40,0.00
28.693,-0.02,0.26,1.10,-0.38,-0.07,-0.22,-0.24,0.27,-0.05,0.00
28.695,-0.02,0.26,1.10,0.17,-0.12,1.89,-0.24,0.27,-0.05,0.00
28.735,0.01,0.18,1.30,0.17,-0.12,1.89,-0.24,0.27,-0.05,0.00
28.763,0.01,0.18,1.30,0.17,-0.12,1.89,-0.77,-0.05,0.14,0.00
28.764,0.01,0.18,1.30,0.43,-0.48,2.01,-0.77,-0.05,0.14,0.00
28.817,0.12,0.16,1.09,0.43,-0.48,2.01,-0.77,-0.05,0.14,0.00
28.827,0.12,0.16,1.09,0.43,-0.48,2.01,-0.49,-0.35,0.79,0.00
28.828,0.12,0.16,1.09,0.40,-0.24,1.44,-0.49,-0.35,0.79,0.00
28.867,0.22,0.08,1.22,0.40,-0.24,1.44,-0.49,-0.35,0.79,0.00
28.891,0.22,0.08,1.22,0.40,-0.24,1.44,-0.76,-0.72,1.22,0.00
28.892,0.22,0.08,1.22,1.64,-1.00,2.73,-0.76,-0.72,1.22,0.00
28.933,0.07,0.04,0.95,1.64,-1.00,2.73,-0.76,-0.72,1.22,0.00
28.959,0.07,0.04,0.95,1.64,-1.00,2.73,-0.60,-0.08,-0.03,0.00
28.96,0.07,0.04,0.95,-0.45,-0.00,-0.66,-0.60,-0.08,-0.03,0.00
28.999,0.13,0.05,0.95,-0.45,-0.00,-0.66,-0.60,-0.08,-0.03,0.00
29.025,0.13,0.05,0.95,-0.45,-0.00,-0.66,-0.21,-0.19,0.29,0.00
29.027,0.13,0.05,0.95,0.41,-0.32,-0.64,-0.21,-0.19,0.29,0.00
29.086,0.12,0.02,0.76,0.41,-0.32,-0.64,-0.21,-0.19,0.29,0.00
29.102,0.12,0.02,0.76,0.41,-0.32,-0.64,-0.17,-0.24,0.43,0.00
29.103,0.12,0.02,0.76,-0.09,-0.33,-2.24,-0.17,-0.24,0.43,0.00
29.15,0.01,0.04,0.88,-0.09,-0.33,-2.24,-0.17,-0.24,0.43,0.00
29.176,0.01,0.04,0.88,-0.09,-0.33,-2.24,-0.18,0.35,-0.56,0.00
29.18,0.01,0.04,0.88,-0.94,0.23,-1.72,-0.18,0.35,-0.56,0.00
29.197,0.10,0.11,0.78,-0.94,0.23,-1.72,-0.18,0.35,-0.56,0.00
29.222,0.10,0.11,0.78,-0.94,0.23,-1.72,0.45,0.04,0.03,0.00
29.224,0.10,0.11,0.78,0.31,0.55,-2.06,0.45,0.04,0.03,0.00
29.264,0.15,0.13,0.86,0.31,0.55,-2.06,0.45,0.04,0.03,0.00
29.287,0.15,0.13,0.86,0.31,0.55,-2.06,0.58,-0.37,0.58,0.00
29.289,0.15,0.13,0.86,0.29,0.19,-0.54,0.58,-0.37,0.58,0.00
29.332,0.13,0.16,1.01,0.29,0.19,-0.54,0.58,-0.37,0.58,0.00
29.355,0.13,0.16,1.01,0.29,0.19,-0.54,0.33,-0.15,0.02,0.00
29.357,0.13,0.16,1.01,-0.06,0.34,0.23,0.33,-0.15,0.02,0.00
29.395,0.10,0.17,1.08,-0.06,0.34,0.23,0.33,-0.15,0.02,0.00
29.419,0.10,0.17,1.08,-0.06,0.34,0.23,0.13,0.08,-0.58,0.00
29.42,0.10,0.17,1.08,-0.33,0.24,1.34,0.13,0.08,-0.58,0.00
29.461,0.13,0.15,1.25,-0.33,0.24,1.34,0.13,0.08,-0.58,0.00
29.485,0.13,0.15,1.25,-0.33,0.24,1.34,-0.22,-0.01,-0.64,0.00
29.487,0.13,0.15,1.25,0.47,0.12,2.50,-0.22,-0.01,-0.64,0.00
29.532,0.18,0.19,1.12,0.47,0.12,2.50,-0.22,-0.01,-0.64,0.00
29.557,0.18,0.19,1.12,0.47,0.12,2.50,0.10,-0.21,-0.21,0.00
29.558,0.18,0.19,1.12,-0.66,0.23,0.30,0.10,-0.21,-0.21,0.00
29.593,0.02,0.06,1.25,-0.66,0.23,0.30,0.10,-0.21,-0.21,0.00
29.617,0.02,0.06,1.25,-0.66,0.23,0.30,-0.65,0.46,-1.46,0.00
29.62,0.02,0.06,1.25,-1.17,-1.08,3.72,-0.65,0.46,-1.46,0.00
29.659,-0.09,0.07,1.20,-1.17,-1.08,3.72,-0.65,0.46,-1.46,0.00
29.683,-0.09,0.07,1.20,-1.17,-1.08,3.72,-0.49,0.92,-1.65,0.00
29.685,-0.09,0.07,1.20,-1.18,0.16,1.00,-0.49,0.92,-1.65,0.00
29.738,-0.12,0.14,0.96,-1.18,0.16,1.00,-0.49,0.92,-1.65,0.00
29.754,-0.12,0.14,0.96,-1.18,0.16,1.00,0.29,0.79,-0.79,0.00
29.758,-0.12,0.14,0.96,-0.54,0.63,-0.91,0.29,0.79,-0.79,0.00
29.791,0.09,0.17,0.97,-0.54,0.63,-0.91,0.29,0.79,-0.79,0.00
29.815,0.09,0.17,0.97,-0.54,0.63,-0.91,0.46,-0.42,0.94,0.00
29.816,0.09,0.17,0.97,0.82,0.18,-0.36,0.46,-0.42,0.94,0.00
29.857,0.03,0.11,0.93,0.82,0.18,-0.36,0.46,-0.42,0.94,0.00
29.881,0.03,0.11,0.93,0.82,0.18,-0.36,0.04,-0.35,0.43,0.00
29.883,0.03,0.11,0.93,0.07,-0.31,-0.80,0.04,-0.35,0.43,0.00
29.938,0.00,0.14,0.75,0.07,-0.31,-0.80,0.04,-0.35,0.43,0.00
29.952,0.00,0.14,0.75,0.07,-0.31,-0.80,0.26,-0.07,0.19,0.00
29.955,0.00,0.14,0.75,0.07,0.09,-2.93,0.26,-0.07,0.19,0.00
29.989,0.01,0.18,0.75,0.07,0.09,-2.93,0.26,-0.07,0.19,0.00
30.013,0.01,0.18,0.75,0.07,0.09,-2.93,0.63,0.16,0.08,0.00
30.014,0.01,0.18,0.75,-0.59,0.25,-2.34,0.63,0.16,0.08,0.00
30.055,-0.01,0.25,0.82,-0.59,0.25,-2.34,0.63,0.16,0.08,0.00
30.079,-0.01,0.25,0.82,-0.59,0.25,-2.34,0.73,0.22,0.12,0.00
30.083,-0.01,0.25,0.82,0.09,0.25,-1.23,0.73,0.22,0.12,0.00
30.135,-0.04,0.29,0.95,0.09,0.25,-1.23,0.73,0.22,0.12,0.00
30.157,-0.04,0.29,0.95,0.09,0.25,-1.23,0.35,0.20,0.00,0.00
30.16,-0.04,0.29,0.95,-0.24,0.15,0.85,0.35,0.20,0.00,0.00
30.187,0.03,0.20,1.26,-0.24,0.15,0.85,0.35,0.20,0.00,0.00
30.211,0.03,0.20,1.26,-0.24,0.15,0.85,-0.72,-0.12,-0.24,0.00
30.214,0.03,0.20,1.26,-0.20,-0.42,2.67,-0.72,-0.12,-0.24,0.00
30.253,-0.06,0.20,1.10,-0.20,-0.42,2.67,-0.72,-0.12,-0.24,0.00
30.277,-0.06,0.20,1.10,-0.20,-0.42,2.67,-0.46,0.08,-0.56,0.00
30.279,-0.06,0.20,1.10,0.50,-0.03,1.61,-0.46,0.08,-0.56,0.00
30.333,0.12,0.08,1.48,0.50,-0.03,1.61,-0.46,0.08,-0.56,0.00
30.348,0.12,0.08,1.48,0.50,-0.03,1.61,-0.87,-0.69,0.26,0.00
30.352,0.12,0.08,1.48,1.23,-0.68,2.89,-0.87,-0.69,0.26,0.00
30.385,0.17,0.08,1.17,1.23,-0.68,2.89,-0.87,-0.69,0.26,0.00
30.409,0.17,0.08,1.17,1.23,-0.68,2.89,-0.46,-0.63,0.33,0.00
30.412,0.17,0.08,1.17,0.28,0.05,1.63,-0.46,-0.63,0.33,0.00
30.452,0.17,0.09,0.97,0.28,0.05,1.63,-0.46,-0.63,0.33,0.00
30.475,0.17,0.09,0.97,0.28,0.05,1.63,-0.03,-0.54,0.33,0.00
30.477,0.17,0.09,0.97,1.16,0.03,-1.84,-0.03,-0.54,0.33,0.00
30.53,0.18,0.11,0.68,1.16,0.03,-1.84,-0.03,-0.54,0.33,0.00
30.545,0.18,0.11,0.68,1.16,0.03,-1.84,0.36,-0.72,0.91,0.00
30.549,0.18,0.11,0.68,-0.61,0.01,-2.65,0.36,-0.72,0.91,0.00
30.583,0.02,0.12,0.71,-0.61,0.01,-2.65,0.36,-0.72,0.91,0.00
30.607,0.02,0.12,0.71,-0.61,0.01,-2.65,0.29,0.31,-0.91,0.00
30.61,0.02,0.12,0.71,-0.95,0.05,-3.08,0.29,0.31,-0.91,0.00
30.649,0.12,0.16,0.69,-0.95,0.05,-3.08,0.29,0.31,-0.91,0.00
30.673,0.12,0.16,0.69,-0.95,0.05,-3.08,0.52,-0.21,-0.20,0.00
30.675,0.12,0.16,0.69,0.03,-0.12,-2.57,0.52,-0.21,-0.20,0.00
30.715,0.11,0.18,0.84,0.03,-0.12,-2.57,0.52,-0.21,-0.20,0.00
30.758,0.11,0.18,0.84,0.03,-0.12,-2.57,0.25,-0.21,-0.43,0.00
30.759,0.11,0.18,0.84,-0.78,-0.18,-0.15,0.25,-0.21,-0.43,0.00
30.781,-0.01,0.19,1.19,-0.78,-0.18,-0.15,0.25,-0.21,-0.43,0.00
30.805,-0.01,0.19,1.19,-0.78,-0.18,-0.15,-0.54,0.71,-2.39,0.00
30.808,-0.01,0.19,1.19,-1.17,0.09,3.14,-0.54,0.71,-2.39,0.00
30.852,-0.05,0.19,1.48,-1.17,0.09,3.14,-0.54,0.71,-2.39,0.00
30.874,-0.05,0.19,1.48,-1.17,0.09,3.14,-0.49,0.58,-1.90,0.00
30.878,-0.05,0.19,1.48,0.28,0.32,4.40,-0.49,0.58,-1.90,0.00
30.913,-0.08,0.16,1.27,0.28,0.32,4.40,-0.49,0.58,-1.90,0.00
30.939,-0.08,0.16,1.27,0.28,0.32,4.40,-0.20,0.12,-0.85,0.00
30.941,-0.08,0.16,1.27,-0.82,0.13,2.73,-0.20,0.12,-0.85,0.00
30.979,0.05,0.18,1.15,-0.82,0.13,2.73,-0.20,0.12,-0.85,0.00
31.003,0.05,0.18,1.15,-0.82,0.13,2.73,0.01,-0.11,-0.13,0.00
31.006,0.05,0.18,1.15,0.12,0.54,0.20,0.01,-0.11,-0.13,0.00
31.05,0.00,0.21,0.87,0.12,0.54,0.20,0.01,-0.11,-0.13,0.00
31.073,0.00,0.21,0.87,0.12,0.54,0.20,0.47,0.07,0.31,0.00
31.075,0.00,0.21,0.87,-0.23,0.55,-1.93,0.47,0.07,0.31,0.00
31.111,-0.02,0.20,0.80,-0.23,0.55,-1.93,0.47,0.07,0.31,0.00
31.145,-0.02,0.20,0.80,-0.23,0.55,-1.93,0.51,0.28,0.31,0.00
31.147,-0.02,0.20,0.80,-0.22,-0.36,-1.73,0.51,0.28,0.31,0.00
31.177,0.01,0.17,0.86,-0.22,-0.36,-1.73,0.51,0.28,0.31,0.00
31.201,0.01,0.17,0.86,-0.22,-0.36,-1.73,0.05,0.08,0.09,0.00
31.204,0.01,0.17,0.86,0.25,-0.38,-1.12,0.05,0.08,0.09,0.00
31.265,0.10,0.23,0.67,0.25,-0.38,-1.12,0.05,0.08,0.09,0.00
31.272,0.10,0.23,0.67,0.25,-0.38,-1.12,0.54,-0.49,1.11,0.00
31.273,0.10,0.23,0.67,0.49,0.03,-2.47,0.54,-0.49,1.11,0.00
31.309,0.04,0.20,0.93,0.49,0.03,-2.47,0.54,-0.49,1.11,0.00
31.365,0.04,0.20,0.93,0.49,0.03,-2.47,0.02,-0.19,0.17,0.00
31.366,0.04,0.20,0.93,-0.48,-0.52,-0.08,0.02,-0.19,0.17,0.00
31.375,-0.05,0.23,0.84,-0.48,-0.52,-0.08,0.02,-0.19,0.17,0.00
31.399,-0.05,0.23,0.84,-0.48,-0.52,-0.08,-0.00,0.43,-0.70,0.00
31.401,-0.05,0.23,0.84,-0.60,-0.04,-1.34,-0.00,0.43,-0.70,0.00
31.445,0.00,0.30,0.84,-0.60,-0.04,-1.34,-0.00,0.43,-0.70,0.00
31.469,0.00,0.30,0.84,-0.60,-0.04,-1.34,0.55,0.16,0.09,0.00
31.471,0.00,0.30,0.84,0.08,0.28,-0.87,0.55,0.16,0.09,0.00
31.507,0.04,0.29,1.04,0.08,0.28,-0.87,0.55,0.16,0.09,0.00
31.554,0.04,0.29,1.04,0.08,0.28,-0.87,0.08,-0.20,-0.05,0.00
31.556,0.04,0.29,1.04,0.38,0.01,1.20,0.08,-0.20,-0.05,0.00
31.573,0.04,0.28,1.19,0.38,0.01,1.20,0.08,-0.20,-0.05,0.00
31.597,0.04,0.28,1.19,0.38,0.01,1.20,-0.37,-0.31,-0.48,0.00
31.6,0.04,0.28,1.19,0.20,0.23,2.52,-0.37,-0.31,-0.48,0.00
31.644,0.04,0.24,1.14,0.20,0.23,2.52,-0.37,-0.31,-0.48,0.00
31.669,0.04,0.24,1.14,0.20,0.23,2.52,-0.32,-0.24,-0.60,0.00
31.671,0.04,0.24,1.14,0.21,0.14,1.44,-0.32,-0.24,-0.60,0.00
31.706,0.09,0.28,1.13,0.21,0.14,1.44,-0.32,-0.24,-0.60,0.00
31.754,0.09,0.28,1.13,0.21,0.14,1.44,-0.10,-0.37,-0.18,0.00
31.756,0.09,0.28,1.13,1.27,0.17,2.27,-0.10,-0.37,-0.18,0.00
31.774,0.13,0.04,1.31,1.27,0.17,2.27,-0.10,-0.37,-0.18,0.00
31.795,0.13,0.04,1.31,1.27,0.17,2.27,-1.24,-0.29,-1.58,0.00
31.797,0.13,0.04,1.31,-0.57,-1.17,3.16,-1.24,-0.29,-1.58,0.00
31.851,0.06,0.11,1.16,-0.57,-1.17,3.16,-1.24,-0.29,-1.58,0.00
31.861,0.06,0.11,1.16,-0.57,-1.17,3.16,-0.86,-0.00,-1.40,0.00
31.862,0.06,0.11,1.16,0.14,-0.07,1.65,-0.86,-0.00,-1.40,0.00
31.903,0.14,0.16,0.77,0.14,-0.07,1.65,-0.86,-0.00,-1.40,0.00
31.968,0.14,0.16,0.77,0.14,-0.07,1.65,0.23,-0.44,0.07,0.00
31.972,0.14,0.16,0.77,1.08,0.44,-2.80,0.23,-0.44,0.07,0.00
31.973,0.13,0.18,0.68,1.08,0.44,-2.80,0.23,-0.44,0.07,0.00
31.993,0.13,0.18,0.68,1.08,0.44,-2.80,0.77,-0.46,0.71,0.00
31.994,0.13,0.18,0.68,-0.40,0.18,-2.83,0.77,-0.46,0.71,0.00
32.039,0.07,0.20,0.77,-0.40,0.18,-2.83,0.77,-0.46,0.71,0.00
32.063,0.07,0.20,0.77,-0.40,0.18,-2.83,0.64,0.10,0.03,0.00
32.064,0.07,0.20,0.77,-0.38,0.03,-2.04,0.64,0.10,0.03,0.00
32.101,0.13,0.25,0.73,-0.38,0.03,-2.04,0.64,0.10,0.03,0.00
32.159,0.13,0.25,0.73,-0.38,0.03,-2.04,0.80,-0.19,0.42,0.00
32.165,0.13,0.25,0.73,-0.14,0.22,-2.24,0.80,-0.19,0.42,0.00
32.167,0.10,0.29,0.81,-0.14,0.22,-2.24,0.80,-0.19,0.42,0.00
32.191,0.10,0.29,0.81,-0.14,0.22,-2.24,0.67,-0.04,-0.15,0.00
32.194,0.10,0.29,0.81,-0.40,0.05,-1.25,0.67,-0.04,-0.15,0.00
32.247,0.05,0.29,0.86,-0.40,0.05,-1.25,0.67,-0.04,-0.15,0.00
32.261,0.05,0.29,0.86,-0.40,0.05,-1.25,0.15,0.07,-1.09,0.00
32.262,0.05,0.29,0.86,-0.73,-0.33,-0.36,0.15,0.07,-1.09,0.00
32.299,-0.03,0.28,1.05,-0.73,-0.33,-0.36,0.15,0.07,-1.09,0.00
32.346,-0.03,0.28,1.05,-0.73,-0.33,-0.36,-0.38,0.23,-2.08,0.00
32.348,-0.03,0.28,1.05,-0.94,0.36,0.39,-0.38,0.23,-2.08,0.00
32.366,0.03,0.41,0.90,-0.94,0.36,0.39,-0.38,0.23,-2.08,0.00
32.389,0.03,0.41,0.90,-0.94,0.36,0.39,0.50,0.11,-0.64,0.00
32.392,0.03,0.41,0.90,0.92,0.53,1.00,0.50,0.11,-0.64,0.00
32.436,0.13,0.27,1.26,0.92,0.53,1.00,0.50,0.11,-0.64,0.00
32.459,0.13,0.27,1.26,0.92,0.53,1.00,-0.74,-0.92,-1.69,0.00
32.462,0.13,0.27,1.26,0.09,-0.35,2.42,-0.74,-0.92,-1.69,0.00
32.497,-0.05,0.30,0.98,0.09,-0.35,2.42,-0.74,-0.92,-1.69,0.00
32.54,-0.05,0.30,0.98,0.09,-0.35,2.42,-0.31,0.07,-1.47,0.00
32.542,-0.05,0.30,0.98,-0.67,0.10,0.00,-0.31,0.07,-1.47,0.00
32.569,-0.07,0.25,1.05,-0.67,0.10,0.00,-0.31,0.07,-1.47,0.00
32.587,-0.07,0.25,1.05,-0.67,0.10,0.00,-0.22,0.22,-1.22,0.00
32.588,-0.07,0.25,1.05,-0.58,-0.12,1.20,-0.22,0.22,-1.22,0.00
32.641,-0.05,0.30,0.89,-0.58,-0.12,1.20,-0.22,0.22,-1.22,0.00
32.653,-0.05,0.30,0.89,-0.58,-0.12,1.20,0.31,0.12,-0.52,0.00
32.654,-0.05,0.30,0.89,0.06,0.45,-1.64,0.31,0.12,-0.52,0.00
32.695,-0.03,0.35,0.70,0.06,0.45,-1.64,0.31,0.12,-0.52,0.00
32.77,-0.03,0.35,0.70,0.06,0.45,-1.64,1.01,0.18,0.40,0.00
32.771,-0.03,0.35,0.70,0.31,0.14,-2.08,1.01,0.18,0.40,0.00
32.778,0.03,0.35,0.83,0.31,0.14,-2.08,1.01,0.18,0.40,0.00
32.785,0.03,0.35,0.83,0.31,0.14,-2.08,0.63,-0.27,0.08,0.00
32.786,0.03,0.35,0.83,0.51,-0.24,-0.65,0.63,-0.27,0.08,0.00
32.833,0.05,0.32,0.99,0.51,-0.24,-0.65,0.63,-0.27,0.08,0.00
32.858,0.05,0.32,0.99,0.51,-0.24,-0.65,-0.22,-0.86,-1.03,0.00
32.861,0.05,0.32,0.99,0.45,-0.59,1.12,-0.22,-0.86,-1.03,0.00
32.895,0.07,0.28,1.12,0.45,-0.59,1.12,-0.22,-0.86,-1.03,0.00
32.921,0.07,0.28,1.12,0.45,-0.59,1.12,-0.71,-0.96,-1.82,0.00
32.922,0.07,0.28,1.12,0.27,-0.02,1.20,-0.71,-0.96,-1.82,0.00
32.959,0.09,0.31,1.09,0.27,-0.02,1.20,-0.71,-0.96,-1.82,0.00
32.983,0.09,0.31,1.09,0.27,-0.02,1.20,-0.39,-0.81,-1.57,0.00
32.985,0.09,0.31,1.09,0.52,0.05,1.29,-0.39,-0.81,-1.57,0.00
33.04,0.17,0.23,1.09,0.52,0.05,1.29,-0.39,-0.81,-1.57,0.00
33.051,0.17,0.23,1.09,0.52,0.05,1.29,-0.55,-0.98,-1.66,0.00
33.052,0.17,0.23,1.09,0.33,-0.39,0.71,-0.55,-0.98,-1.66,0.00
33.092,0.07,0.22,0.95,0.33,-0.39,0.71,-0.55,-0.98,-1.66,0.00
33.121,0.07,0.22,0.95,0.33,-0.39,0.71,-0.34,-0.34,-1.30,0.00
33.124,0.07,0.22,0.95,-0.22,-0.04,-0.27,-0.34,-0.34,-1.30,0.00
33.165,0.19,0.25,0.87,-0.22,-0.04,-0.27,-0.34,-0.34,-1.30,0.00
33.181,0.19,0.25,0.87,-0.22,-0.04,-0.27,-0.04,-0.78,-1.23,0.00
33.185,0.19,0.25,0.87,0.80,0.08,-0.88,-0.04,-0.78,-1.23,0.00
33.223,0.20,0.26,0.83,0.80,0.08,-0.88,-0.04,-0.78,-1.23,0.00
33.273,0.20,0.26,0.83,0.80,0.08,-0.88,0.09,-1.19,-1.31,0.00
33.276,0.20,0.26,0.83,0.36,0.03,-1.24,0.09,-1.19,-1.31,0.00
33.293,0.14,0.30,0.83,0.36,0.03,-1.24,0.09,-1.19,-1.31,0.00
33.315,0.14,0.30,0.83,0.36,0.03,-1.24,0.36,-0.28,-0.79,0.00
33.316,0.14,0.30,0.83,-0.19,0.17,-0.96,0.36,-0.28,-0.79,0.00
33.357,0.21,0.33,0.85,-0.19,0.17,-0.96,0.36,-0.28,-0.79,0.00
33.379,0.21,0.33,0.85,-0.19,0.17,-0.96,0.25,-0.66,-1.05,0.00
33.383,0.21,0.33,0.85,0.19,0.12,-0.74,0.25,-0.66,-1.05,0.00
33.421,0.15,0.32,1.05,0.19,0.12,-0.74,0.25,-0.66,-1.05,0.00
33.45,0.15,0.32,1.05,0.19,0.12,-0.74,-0.34,-0.04,-0.96,0.00
33.459,0.15,0.32,1.05,-0.87,-0.06,1.29,-0.34,-0.04,-0.96,0.00
33.487,0.08,0.37,0.93,-0.87,-0.06,1.29,-0.34,-0.04,-0.96,0.00
33.515,0.08,0.37,0.93,-0.87,-0.06,1.29,0.11,0.61,-0.42,0.00
33.517,0.08,0.37,0.93,-0.80,0.62,-0.72,0.11,0.61,-0.42,0.00
33.553,0.09,0.35,1.08,-0.80,0.62,-0.72,0.11,0.61,-0.42,0.00
33.58,0.09,0.35,1.08,-0.80,0.62,-0.72,-0.31,0.27,-0.76,0.00
33.584,0.09,0.35,1.08,-0.21,-0.37,2.08,-0.31,0.27,-0.76,0.00
33.619,-0.05,0.24,1.05,-0.21,-0.37,2.08,-0.31,0.27,-0.76,0.00
33.66,-0.05,0.24,1.05,-0.21,-0.37,2.08,-0.91,0.53,-0.81,0.00
33.662,-0.05,0.24,1.05,-1.04,-0.38,0.85,-0.91,0.53,-0.81,0.00
33.685,-0.08,0.27,1.05,-1.04,-0.38,0.85,-0.91,0.53,-0.81,0.00
33.711,-0.08,0.27,1.05,-1.04,-0.38,0.85,-0.32,0.73,-0.46,0.00
33.713,-0.08,0.27,1.05,-0.58,-0.20,1.12,-0.32,0.73,-0.46,0.00
33.756,0.00,0.22,1.02,-0.58,-0.20,1.12,-0.32,0.73,-0.46,0.00
33.781,0.00,0.22,1.02,-0.58,-0.20,1.12,-0.25,-0.03,-0.70,0.00
33.782,0.00,0.22,1.02,0.16,-0.04,-0.14,-0.25,-0.03,-0.70,0.00
33.817,0.01,0.27,0.82,0.16,-0.04,-0.14,-0.25,-0.03,-0.70,0.00
33.85,0.01,0.27,0.82,0.16,-0.04,-0.14,0.33,-0.20,-0.53,0.00
33.852,0.01,0.27,0.82,0.10,0.26,-1.47,0.33,-0.20,-0.53,0.00
33.883,-0.03,0.31,0.81,0.10,0.26,-1.47,0.33,-0.20,-0.53,0.00
33.909,-0.03,0.31,0.81,0.10,0.26,-1.47,0.58,0.09,-0.20,0.00
33.911,-0.03,0.31,0.81,-0.15,0.10,-0.62,0.58,0.09,-0.20,0.00
33.99,-0.00,0.31,0.99,-0.15,0.10,-0.62,0.58,0.09,-0.20,0.00
33.993,-0.00,0.31,0.99,-0.15,0.10,-0.62,0.07,-0.18,-0.44,0.00
33.994,-0.00,0.31,0.99,0.08,-0.02,0.50,0.07,-0.18,-0.44,0.00
34.015,-0.04,0.29,0.98,0.08,-0.02,0.50,0.07,-0.18,-0.44,0.00
34.053,-0.04,0.29,0.98,0.08,-0.02,0.50,-0.08,0.06,-0.30,0.00
34.054,-0.04,0.29,0.98,-0.28,-0.05,-0.10,-0.08,0.06,-0.30,0.00
34.081,-0.04,0.34,0.91,-0.28,-0.05,-0.10,-0.08,0.06,-0.30,0.00
34.107,-0.04,0.34,0.91,-0.28,-0.05,-0.10,0.19,0.03,-0.19,0.00
34.109,-0.04,0.34,0.91,0.01,0.29,-0.15,0.19,0.03,-0.19,0.00
34.16,0.02,0.31,1.26,0.01,0.29,-0.15,0.19,0.03,-0.19,0.00
34.178,0.02,0.31,1.26,0.01,0.29,-0.15,-0.40,-0.51,-0.65,0.00
34.182,0.02,0.31,1.26,0.46,0.02,3.60,-0.40,-0.51,-0.65,0.00
34.213,0.08,0.28,1.29,0.46,0.02,3.60,-0.40,-0.51,-0.65,0.00
34.26,0.08,0.28,1.29,0.46,0.02,3.60,-0.71,-0.89,-0.89,0.00
34.262,0.08,0.28,1.29,1.24,-0.13,3.31,-0.71,-0.89,-0.89,0.00
34.28,0.18,0.11,1.38,1.24,-0.13,3.31,-0.71,-0.89,-0.89,0.00
34.306,0.18,0.11,1.38,1.24,-0.13,3.31,-1.15,-0.55,-0.66,0.00
34.307,0.18,0.11,1.38,-0.19,-0.92,2.45,-1.15,-0.55,-0.66,0.00
34.362,0.05,0.11,0.93,-0.19,-0.92,2.45,-1.15,-0.55,-0.66,0.00
34.379,0.05,0.11,0.93,-0.19,-0.92,2.45,-0.63,-0.05,-0.29,0.00
34.382,0.05,0.11,0.93,0.06,0.06,-1.49,-0.63,-0.05,-0.29,0.00
34.411,0.21,0.11,0.87,0.06,0.06,-1.49,-0.63,-0.05,-0.29,0.00
34.457,0.21,0.11,0.87,0.06,0.06,-1.49,-0.22,-0.97,-1.01,0.00
34.459,0.21,0.11,0.87,1.21,-0.29,-1.24,-0.22,-0.97,-1.01,0.00
34.477,0.18,0.09,0.80,1.21,-0.29,-1.24,-0.22,-0.97,-1.01,0.00
34.507,0.18,0.09,0.80,1.21,-0.29,-1.24,-0.16,-0.70,-0.88,0.00
34.509,0.18,0.09,0.80,-0.73,0.08,-1.96,-0.16,-0.70,-0.88,0.00
34.556,0.06,0.17,0.79,-0.73,0.08,-1.96,-0.16,-0.70,-0.88,0.00
34.571,0.06,0.17,0.79,-0.73,0.08,-1.96,0.44,0.34,-0.29,0.00
34.573,0.06,0.17,0.79,-0.83,0.46,-1.87,0.44,0.34,-0.29,0.00
34.609,0.05,0.23,0.78,-0.83,0.46,-1.87,0.44,0.34,-0.29,0.00
34.676,0.05,0.23,0.78,-0.83,0.46,-1.87,0.87,0.45,-0.21,0.00
34.679,0.05,0.23,0.78,-0.45,0.39,-1.67,0.87,0.45,-0.21,0.00
34.681,0.08,0.27,0.81,-0.45,0.39,-1.67,0.87,0.45,-0.21,0.00
34.704,0.08,0.27,0.81,-0.45,0.39,-1.67,0.72,0.03,-0.39,0.00
34.706,0.08,0.27,0.81,0.16,0.11,0.37,0.72,0.03,-0.39,0.00
34.75,0.05,0.25,1.29,0.16,0.11,0.37,0.72,0.03,-0.39,0.00
34.791,0.05,0.25,1.29,0.16,0.11,0.37,-0.16,0.25,-0.05,0.00
34.793,0.05,0.25,1.29,-0.32,0.03,3.23,-0.16,0.25,-0.05,0.00
34.807,0.03,0.26,1.31,-0.32,0.03,3.23,-0.16,0.25,-0.05,0.00
34.845,0.03,0.26,1.31,-0.32,0.03,3.23,-0.35,0.49,0.06,0.00
34.846,0.03,0.26,1.31,-1.30,0.55,3.55,-0.35,0.49,0.06,0.00
34.874,-0.11,0.27,1.32,-1.30,0.55,3.55,-0.35,0.49,0.06,0.00
34.899,-0.11,0.27,1.32,-1.30,0.55,3.55,-0.15,0.77,0.16,0.00
34.9,-0.11,0.27,1.32,-0.02,0.40,2.80,-0.15,0.77,0.16,0.00
34.939,0.07,0.18,1.25,-0.02,0.40,2.80,-0.15,0.77,0.16,0.00
34.965,0.07,0.18,1.25,-0.02,0.40,2.80,-0.28,0.01,-0.41,0.00
34.966,0.07,0.18,1.25,-0.98,-0.07,-0.53,-0.28,0.01,-0.41,0.00
35.006,-0.16,0.21,0.71,-0.98,-0.07,-0.53,-0.28,0.01,-0.41,0.00
35.032,-0.16,0.21,0.71,-0.98,-0.07,-0.53,0.30,0.94,0.37,0.00
35.035,-0.16,0.21,0.71,-0.72,0.21,-2.63,0.30,0.94,0.37,0.00
35.078,-0.10,0.20,0.75,-0.72,0.21,-2.63,0.30,0.94,0.37,0.00
35.103,-0.10,0.20,0.75,-0.72,0.21,-2.63,0.25,0.62,0.25,0.00
35.104,-0.10,0.20,0.75,-0.05,-0.39,-1.83,0.25,0.62,0.25,0.00
35.138,-0.11,0.17,0.83,-0.05,-0.39,-1.83,0.25,0.62,0.25,0.00
35.164,-0.11,0.17,0.83,-0.05,-0.39,-1.83,-0.06,0.34,0.14,0.00
35.166,-0.11,0.17,0.83,0.01,-0.45,-1.54,-0.06,0.34,0.14,0.00
35.207,-0.09,0.23,0.73,0.01,-0.45,-1.54,-0.06,0.34,0.14,0.00
35.241,-0.09,0.23,0.73,0.01,-0.45,-1.54,0.36,0.10,0.03,0.00
35.244,-0.09,0.23,0.73,0.32,-0.10,-1.96,0.36,0.10,0.03,0.00
35.27,-0.12,0.25,0.79,0.32,-0.10,-1.96,0.36,0.10,0.03,0.00
35.296,-0.12,0.25,0.79,0.32,-0.10,-1.96,0.33,0.06,0.04,0.00
35.298,-0.12,0.25,0.79,-0.17,-0.16,-0.90,0.33,0.06,0.04,0.00
35.339,-0.13,0.23,1.04,-0.17,-0.16,-0.90,0.33,0.06,0.04,0.00
35.365,-0.13,0.23,1.04,-0.17,-0.16,-0.90,-0.30,-0.07,-0.08,0.00
35.367,-0.13,0.23,1.04,0.16,-0.29,1.95,-0.30,-0.07,-0.08,0.00
35.401,-0.10,0.18,1.31,0.16,-0.29,1.95,-0.30,-0.07,-0.08,0.00
35.45,-0.10,0.18,1.31,0.16,-0.29,1.95,-0.87,-0.65,-0.50,0.00
35.451,-0.10,0.18,1.31,0.35,-0.34,3.78,-0.87,-0.65,-0.50,0.00
35.467,0.14,0.16,1.21,0.35,-0.34,3.78,-0.87,-0.65,-0.50,0.00
35.495,0.14,0.16,1.21,0.35,-0.34,3.78,-0.58,-1.36,-0.82,0.00
35.496,0.14,0.16,1.21,1.40,0.06,1.73,-0.58,-1.36,-0.82,0.00
35.547,0.14,0.06,1.39,1.40,0.06,1.73,-0.58,-1.36,-0.82,0.00
35.566,0.14,0.06,1.39,1.40,0.06,1.73,-0.68,-0.91,-0.61,0.00
35.568,0.14,0.06,1.39,0.55,-0.67,3.37,-0.68,-0.91,-0.61,0.00
35.599,0.05,0.09,0.89,0.55,-0.67,3.37,-0.68,-0.91,-0.61,0.00
35.636,0.05,0.09,0.89,0.55,-0.67,3.37,-0.11,-0.16,-0.35,0.00
35.638,0.05,0.09,0.89,-0.23,0.40,-1.72,-0.11,-0.16,-0.35,0.00
35.665,0.15,0.19,0.72,-0.23,0.40,-1.72,-0.11,-0.16,-0.35,0.00
35.694,0.15,0.19,0.72,-0.23,0.40,-1.72,0.62,-0.53,-0.72,0.00
35.695,0.15,0.19,0.72,0.89,0.67,-2.95,0.62,-0.53,-0.72,0.00
35.731,0.20,0.22,0.70,0.89,0.67,-2.95,0.62,-0.53,-0.72,0.00
35.793,0.20,0.22,0.70,0.89,0.67,-2.95,0.84,-1.37,-1.37,0.00
35.795,0.20,0.22,0.70,0.59,0.29,-2.62,0.84,-1.37,-1.37,0.00
35.804,0.13,0.24,0.76,0.59,0.29,-2.62,0.84,-1.37,-1.37,0.00
35.821,0.13,0.24,0.76,0.59,0.29,-2.62,0.66,-0.48,-0.88,0.00
35.823,0.13,0.24,0.76,-0.64,0.03,-1.93,0.66,-0.48,-0.88,0.00
35.863,0.13,0.27,0.85,-0.64,0.03,-1.93,0.66,-0.48,-0.88,0.00
35.89,0.13,0.27,0.85,-0.64,0.03,-1.93,0.39,0.00,-0.56,0.00
35.892,0.13,0.27,0.85,-0.31,-0.14,-0.94,0.39,0.00,-0.56,0.00
35.929,0.15,0.27,1.03,-0.31,-0.14,-0.94,0.39,0.00,-0.56,0.00
35.961,0.15,0.27,1.03,-0.31,-0.14,-0.94,-0.07,0.04,-0.36,0.00
35.963,0.15,0.27,1.03,-0.01,-0.13,0.77,-0.07,0.04,-0.36,0.00
35.995,0.07,0.23,1.32,-0.01,-0.13,0.77,-0.07,0.04,-0.36,0.00
36.022,0.07,0.23,1.32,-0.01,-0.13,0.77,-0.71,0.81,0.22,0.00
36.024,0.07,0.23,1.32,-1.12,-0.08,4.18,-0.71,0.81,0.22,0.00
36.1,-0.08,0.28,1.30,-1.12,-0.08,4.18,-0.71,0.81,0.22,0.00
36.103,-0.08,0.28,1.30,-1.12,-0.08,4.18,-0.36,1.04,0.13,0.00
36.103,-0.08,0.28,1.30,0.34,-0.15,1.99,-0.36,1.04,0.13,0.00
36.127,0.00,0.07,1.38,0.34,-0.15,1.99,-0.36,1.04,0.13,0.00
36.151,0.00,0.07,1.38,0.34,-0.15,1.99,-0.80,0.09,-0.34,0.00
36.152,0.00,0.07,1.38,-0.29,-1.03,3.88,-0.80,0.09,-0.34,0.00
36.193,-0.18,0.12,0.97,-0.29,-1.03,3.88,-0.80,0.09,-0.34,0.00
36.217,-0.18,0.12,0.97,-0.29,-1.03,3.88,-0.44,1.00,0.23,0.00
36.219,-0.18,0.12,0.97,-0.76,0.59,-2.14,-0.44,1.00,0.23,0.00
36.274,0.03,0.22,0.66,-0.76,0.59,-2.14,-0.44,1.00,0.23,0.00
36.289,0.03,0.22,0.66,-0.76,0.59,-2.14,0.78,-0.22,-0.61,0.00
36.293,0.03,0.22,0.66,0.72,0.40,-2.37,0.78,-0.22,-0.61,0.00
36.325,-0.04,0.20,0.85,0.72,0.40,-2.37,0.78,-0.22,-0.61,0.00
36.353,-0.04,0.20,0.85,0.72,0.40,-2.37,0.53,-0.09,-0.35,0.00
36.357,-0.04,0.20,0.85,-0.03,-0.05,-1.31,0.53,-0.09,-0.35,0.00
36.391,0.08,0.26,0.72,-0.03,-0.05,-1.31,0.53,-0.09,-0.35,0.00
36.415,0.08,0.26,0.72,-0.03,-0.05,-1.31,0.80,-0.99,-1.05,0.00
36.417,0.08,0.26,0.72,1.11,0.20,-2.89,0.80,-0.99,-1.05,0.00
36.499,0.07,0.28,0.64,1.11,0.20,-2.89,0.80,-0.99,-1.05,0.00
36.505,0.07,0.28,0.64,1.11,0.20,-2.89,0.94,-1.16,-1.35,0.00
36.506,0.07,0.28,0.64,-0.35,-0.28,-2.85,0.94,-1.16,-1.35,0.00
36.523,0.04,0.27,0.84,-0.35,-0.28,-2.85,0.94,-1.16,-1.35,0.00
36.558,0.04,0.27,0.84,-0.35,-0.28,-2.85,-0.02,-0.17,-0.59,0.00
36.56,0.04,0.27,0.84,-0.16,-0.64,0.10,-0.02,-0.17,-0.59,0.00
36.59,0.01,0.24,1.24,-0.16,-0.64,0.10,-0.02,-0.17,-0.59,0.00
36.613,0.01,0.24,1.24,-0.16,-0.64,0.10,-1.01,0.29,0.08,0.00
36.616,0.01,0.24,1.24,-0.45,-0.33,3.03,-1.01,0.29,0.08,0.00
36.66,0.05,0.26,1.23,-0.45,-0.33,3.03,-1.01,0.29,0.08,0.00
36.685,0.05,0.26,1.23,-0.45,-0.33,3.03,-0.57,-0.07,-0.44,0.00
36.688,0.05,0.26,1.23,1.15,0.25,1.89,-0.57,-0.07,-0.44,0.00
36.721,0.16,0.24,1.04,1.15,0.25,1.89,-0.57,-0.07,-0.44,0.00
36.76,0.16,0.24,1.04,1.15,0.25,1.89,-0.15,-0.92,-1.10,0.00
36.762,0.16,0.24,1.04,0.58,0.16,0.39,-0.15,-0.92,-1.10,0.00
36.79,0.21,0.16,1.10,0.58,0.16,0.39,-0.15,-0.92,-1.10,0.00
36.811,0.21,0.16,1.10,0.58,0.16,0.39,-0.46,-0.87,-0.99,0.00
36.813,0.21,0.16,1.10,0.97,-0.41,1.28,-0.46,-0.87,-0.99,0.00
36.869,0.11,0.12,0.97,0.97,-0.41,1.28,-0.46,-0.87,-0.99,0.00
36.886,0.11,0.12,0.97,0.97,-0.41,1.28,-0.62,-0.36,-0.96,0.00
36.889,0.11,0.12,0.97,-0.39,-0.40,0.68,-0.62,-0.36,-0.96,0.00
36.919,0.16,0.09,1.11,-0.39,-0.40,0.68,-0.62,-0.36,-0.96,0.00
36.943,0.16,0.09,1.11,-0.39,-0.40,0.68,-0.71,-0.15,-0.94,0.00
36.946,0.16,0.09,1.11,0.32,-0.59,1.00,-0.71,-0.15,-0.94,0.00
36.985,0.14,0.07,1.03,0.32,-0.59,1.00,-0.71,-0.15,-0.94,0.00
37.009,0.14,0.07,1.03,0.32,-0.59,1.00,-0.55,-0.12,-1.15,0.00
37.011,0.14,0.07,1.03,-0.11,-0.12,-0.19,-0.55,-0.12,-1.15,0.00
37.055,0.10,0.12,0.81,-0.11,-0.12,-0.19,-0.55,-0.12,-1.15,0.00
37.082,0.10,0.12,0.81,-0.11,-0.12,-0.19,-0.06,-0.10,-1.47,0.00
37.085,0.10,0.12,0.81,-0.01,-0.02,-1.40,-0.06,-0.10,-1.47,0.00
37.117,0.11,0.09,0.87,-0.01,-0.02,-1.40,-0.06,-0.10,-1.47,0.00
37.165,0.11,0.09,0.87,-0.01,-0.02,-1.40,-0.20,-0.12,-1.28,0.00
37.169,0.11,0.09,0.87,-0.19,-0.26,-0.92,-0.20,-0.12,-1.28,0.00
37.183,0.13,0.05,0.95,-0.19,-0.26,-0.92,-0.20,-0.12,-1.28,0.00
37.207,0.13,0.05,0.95,-0.19,-0.26,-0.92,-0.51,-0.07,-0.98,0.00
37.21,0.13,0.05,0.95,-0.12,-0.48,-0.11,-0.51,-0.07,-0.98,0.00
37.253,0.11,0.06,0.98,-0.12,-0.48,-0.11,-0.51,-0.07,-0.98,0.00
37.276,0.11,0.06,0.98,-0.12,-0.48,-0.11,-0.34,0.04,-1.17,0.00
37.279,0.11,0.06,0.98,0.03,0.11,-0.29,-0.34,0.04,-1.17,0.00
37.315,0.13,0.14,0.79,0.03,0.11,-0.29,-0.34,0.04,-1.17,0.00
37.37,0.13,0.14,0.79,0.03,0.11,-0.29,0.16,-0.32,-2.17,0.00
37.372,0.13,0.14,0.79,-0.17,0.65,-2.24,0.16,-0.32,-2.17,0.00
37.382,0.04,0.15,0.92,-0.17,0.65,-2.24,0.16,-0.32,-2.17,0.00
37.405,0.04,0.15,0.92,-0.17,0.65,-2.24,0.14,0.31,-2.70,0.00
37.407,0.04,0.15,0.92,-1.09,0.09,0.07,0.14,0.31,-2.70,0.00
37.452,-0.10,0.11,1.09,-1.09,0.09,0.07,0.14,0.31,-2.70,0.00
37.475,-0.10,0.11,1.09,-1.09,0.09,0.07,-0.28,0.91,-2.79,0.00
37.477,-0.10,0.11,1.09,-1.19,0.15,-0.06,-0.28,0.91,-2.79,0.00
37.518,-0.15,0.16,1.01,-1.19,0.15,-0.06,-0.28,0.91,-2.79,0.00
37.538,-0.15,0.16,1.01,-1.19,0.15,-0.06,0.40,0.47,-5.48,0.00
37.541,-0.15,0.16,1.01,-1.26,0.44,0.22,0.40,0.47,-5.48,0.00
37.601,-0.24,0.19,1.02,-1.26,0.44,0.22,0.40,0.47,-5.48,0.00
37.623,-0.24,0.19,1.02,-1.26,0.44,0.22,1.08,0.10,-7.45,0.00
37.624,-0.24,0.19,1.02,-1.03,0.33,0.17,1.08,0.10,-7.45,0.00
37.649,-0.26,0.20,0.94,-1.03,0.33,0.17,1.08,0.10,-7.45,0.00
37.677,-0.26,0.20,0.94,-1.03,0.33,0.17,1.13,-0.06,-5.71,0.00
37.679,-0.26,0.20,0.94,-0.65,0.49,-0.81,1.13,-0.06,-5.71,0.00
37.711,-0.12,0.25,0.83,-0.65,0.49,-0.81,1.13,-0.06,-5.71,0.00
37.758,-0.12,0.25,0.83,-0.65,0.49,-0.81,1.06,-0.38,-2.10,0.00
37.761,-0.12,0.25,0.83,1.64,0.35,-1.66,1.06,-0.38,-2.10,0.00
37.777,-0.01,0.26,0.74,1.64,0.35,-1.66,1.06,-0.38,-2.10,0.00
37.801,-0.01,0.26,0.74,1.64,0.35,-1.66,0.66,-0.90,0.80,0.00
37.803,-0.01,0.26,0.74,1.65,0.08,-2.67,0.66,-0.90,0.80,0.00
37.85,0.10,0.27,0.75,1.65,0.08,-2.67,0.66,-0.90,0.80,0.00
37.869,0.10,0.27,0.75,1.65,0.08,-2.67,0.45,-1.10,2.41,0.00
37.869,0.10,0.27,0.75,1.41,-0.34,-1.61,0.45,-1.10,2.41,0.00
37.909,0.06,0.26,0.84,1.41,-0.34,-1.61,0.45,-1.10,2.41,0.00
37.933,0.06,0.26,0.84,1.41,-0.34,-1.61,0.05,-0.67,0.49,0.00
37.936,0.06,0.26,0.84,-0.19,-0.52,0.07,0.05,-0.67,0.49,0.00
37.978,0.02,0.31,1.19,-0.19,-0.52,0.07,0.05,-0.67,0.49,0.00
37.999,0.02,0.31,1.19,-0.19,-0.52,0.07,-0.50,-0.25,-0.77,0.00
38.002,0.02,0.31,1.19,0.52,0.43,3.41,-0.50,-0.25,-0.77,0.00
38.041,0.13,0.40,1.22,0.52,0.43,3.41,-0.50,-0.25,-0.77,0.00
38.082,0.13,0.40,1.22,0.52,0.43,3.41,-0.02,-0.46,0.15,0.00
38.084,0.13,0.40,1.22,2.28,0.52,0.34,-0.02,-0.46,0.15,0.00
38.107,0.35,0.29,1.10,2.28,0.52,0.34,-0.02,-0.46,0.15,0.00
38.131,0.35,0.29,1.10,2.28,0.52,0.34,-0.12,-0.85,1.72,0.00
38.133,0.35,0.29,1.10,1.47,-0.36,2.90,-0.12,-0.85,1.72,0.00
38.204,0.15,0.22,1.08,1.47,-0.36,2.90,-0.12,-0.85,1.72,0.00
38.206,0.15,0.22,1.08,1.47,-0.36,2.90,-0.72,-0.24,-0.54,0.00
38.206,0.15,0.22,1.08,-0.17,-0.10,1.22,-0.72,-0.24,-0.54,0.00
38.239,0.20,0.24,0.83,-0.17,-0.10,1.22,-0.72,-0.24,-0.54,0.00
38.274,0.20,0.24,0.83,-0.17,-0.10,1.22,0.06,-0.24,0.10,0.00
38.278,0.20,0.24,0.83,0.15,0.10,-2.94,0.06,-0.24,0.10,0.00
38.305,0.21,0.24,0.58,0.15,0.10,-2.94,0.06,-0.24,0.10,0.00
38.329,0.21,0.24,0.58,0.15,0.10,-2.94,0.90,-0.40,0.89,0.00
38.331,0.21,0.24,0.58,-0.41,-0.28,-4.12,0.90,-0.40,0.89,0.00
38.375,0.06,0.24,0.65,-0.41,-0.28,-4.12,0.90,-0.40,0.89,0.00
38.401,0.06,0.24,0.65,-0.41,-0.28,-4.12,0.58,0.14,-0.82,0.00
38.406,0.06,0.24,0.65,-2.02,-0.71,-1.01,0.58,0.14,-0.82,0.00
38.437,-0.10,0.36,0.94,-2.02,-0.71,-1.01,0.58,0.14,-0.82,0.00
38.483,-0.10,0.36,0.94,-2.02,-0.71,-1.01,-0.18,0.79,-3.37,0.00
38.484,-0.10,0.36,0.94,1.17,-0.19,3.13,-0.18,0.79,-3.37,0.00
38.504,0.29,0.19,1.64,1.17,-0.19,3.13,-0.18,0.79,-3.37,0.00
38.529,0.29,0.19,1.64,1.17,-0.19,3.13,-1.77,-0.18,-0.08,0.00
38.53,0.29,0.19,1.64,0.54,-0.98,7.77,-1.77,-0.18,-0.08,0.00
38.574,-0.08,0.22,1.21,0.54,-0.98,7.77,-1.77,-0.18,-0.08,0.00
38.596,-0.08,0.22,1.21,0.54,-0.98,7.77,-0.80,0.42,-2.36,0.00
38.598,-0.08,0.22,1.21,-1.18,0.65,2.22,-0.80,0.42,-2.36,0.00
38.635,0.05,0.23,0.97,-1.18,0.65,2.22,-0.80,0.42,-2.36,0.00
38.669,0.05,0.23,0.97,-1.18,0.65,2.22,0.17,0.22,0.23,0.00
38.673,0.05,0.23,0.97,0.31,0.37,-0.96,0.17,0.22,0.23,0.00
38.701,0.02,0.21,0.93,0.31,0.37,-0.96,0.17,0.22,0.23,0.00
38.725,0.02,0.21,0.93,0.31,0.37,-0.96,0.12,0.25,0.42,0.00
38.727,0.02,0.21,0.93,-0.50,-0.24,0.26,0.12,0.25,0.42,0.00
38.787,-0.13,0.19,0.95,-0.50,-0.24,0.26,0.12,0.25,0.42,0.00
38.803,-0.13,0.19,0.95,-0.50,-0.24,0.26,-0.05,0.65,-1.05,0.00
38.808,-0.13,0.19,0.95,-1.51,-0.07,-1.56,-0.05,0.65,-1.05,0.00
38.833,0.05,0.23,0.74,-1.51,-0.07,-1.56,-0.05,0.65,-1.05,0.00
38.88,0.05,0.23,0.74,-1.51,-0.07,-1.56,0.45,-0.00,0.46,0.00
38.882,0.05,0.23,0.74,1.67,-0.06,-2.65,0.45,-0.00,0.46,0.00
38.899,0.09,0.24,0.61,1.67,-0.06,-2.65,0.45,-0.00,0.46,0.00
38.923,0.09,0.24,0.61,1.67,-0.06,-2.65,0.67,-0.59,1.72,0.00
38.925,0.09,0.24,0.61,0.61,-0.50,-2.83,0.67,-0.59,1.72,0.00
38.981,0.07,0.25,0.84,0.61,-0.50,-2.83,0.67,-0.59,1.72,0.00
39.007,0.07,0.25,0.84,0.61,-0.50,-2.83,0.26,-0.44,0.60,0.00
39.008,0.07,0.25,0.84,-0.13,-0.02,-0.91,0.26,-0.44,0.60,0.00
39.031,0.06,0.28,1.53,-0.13,-0.02,-0.91,0.26,-0.44,0.60,0.00
39.069,0.06,0.28,1.53,-0.13,-0.02,-0.91,-0.90,-0.21,-1.13,0.00
39.073,0.06,0.28,1.53,-0.02,-0.50,4.98,-0.90,-0.21,-1.13,0.00
39.097,-0.01,0.17,1.37,-0.02,-0.50,4.98,-0.90,-0.21,-1.13,0.00
39.123,-0.01,0.17,1.37,-0.02,-0.50,4.98,-0.96,-0.02,-1.56,0.00
39.124,-0.01,0.17,1.37,-0.07,-0.06,2.10,-0.96,-0.02,-1.56,0.00
39.17,0.19,0.15,1.30,-0.07,-0.06,2.10,-0.96,-0.02,-1.56,0.00
39.195,0.19,0.15,1.30,-0.07,-0.06,2.10,-0.49,-0.38,0.81,0.00
39.196,0.19,0.15,1.30,1.52,-0.13,3.20,-0.49,-0.38,0.81,0.00
39.229,0.25,0.18,1.13,1.52,-0.13,3.20,-0.49,-0.38,0.81,0.00
39.291,0.25,0.18,1.13,1.52,-0.13,3.20,0.20,-0.57,2.77,0.00
39.315,0.25,0.18,1.13,1.54,0.71,-1.44,0.20,-0.57,2.77,0.00
39.316,0.23,0.22,0.57,1.54,0.71,-1.44,0.20,-0.57,2.77,0.00
39.322,0.23,0.22,0.57,1.54,0.71,-1.44,1.16,-0.61,3.15,0.00
39.322,0.23,0.22,0.57,-0.20,0.18,-4.26,1.16,-0.61,3.15,0.00
39.392,0.09,0.17,0.44,-0.20,0.18,-4.26,1.16,-0.61,3.15,0.00
39.394,0.09,0.17,0.44,-0.20,0.18,-4.26,1.08,0.03,1.23,0.00
39.395,0.09,0.17,0.44,-1.45,-0.72,-5.26,1.08,0.03,1.23,0.00
39.427,0.06,0.18,0.53,-1.45,-0.72,-5.26,1.08,0.03,1.23,0.00
39.476,0.06,0.18,0.53,-1.45,-0.72,-5.26,0.38,0.58,-0.38,0.00
39.479,0.06,0.18,0.53,-1.18,-1.08,-0.86,0.38,0.58,-0.38,0.00
39.493,-0.08,0.25,1.04,-1.18,-1.08,-0.86,0.38,0.58,-0.38,0.00
39.517,-0.08,0.25,1.04,-1.18,-1.08,-0.86,-0.62,1.12,-2.42,0.00
39.519,-0.08,0.25,1.04,-1.56,-0.02,0.72,-0.62,1.12,-2.42,0.00
39.563,0.13,0.18,1.86,-1.56,-0.02,0.72,-0.62,1.12,-2.42,0.00
39.586,0.13,0.18,1.86,-1.56,-0.02,0.72,-1.16,0.19,-0.37,0.00
39.589,0.13,0.18,1.86,0.50,0.30,8.04,-1.16,0.19,-0.37,0.00
39.625,-0.13,0.29,1.48,0.50,0.30,8.04,-1.16,0.19,-0.37,0.00
39.663,-0.13,0.29,1.48,0.50,0.30,8.04,-0.11,0.46,-1.07,0.00
39.664,-0.13,0.29,1.48,-1.34,1.41,3.30,-0.11,0.46,-1.07,0.00
39.691,-0.10,0.29,0.96,-1.34,1.41,3.30,-0.11,0.46,-1.07,0.00
39.715,-0.10,0.29,0.96,-1.34,1.41,3.30,0.51,0.35,-0.61,0.00
39.717,-0.10,0.29,0.96,-0.26,0.56,0.07,0.51,0.35,-0.61,0.00
39.772,-0.09,0.20,0.88,-0.26,0.56,0.07,0.51,0.35,-0.61,0.00
39.79,-0.09,0.20,0.88,-0.26,0.56,0.07,0.24,0.26,-0.39,0.00
39.794,-0.09,0.20,0.88,-0.30,-0.28,-2.04,0.24,0.26,-0.39,0.00
39.823,-0.13,0.18,0.70,-0.30,-0.28,-2.04,0.24,0.26,-0.39,0.00
39.861,-0.13,0.18,0.70,-0.30,-0.28,-2.04,0.27,0.42,-0.72,0.00
39.864,-0.13,0.18,0.70,-0.46,-0.37,-2.90,0.27,0.42,-0.72,0.00
39.889,-0.06,0.23,0.55,-0.46,-0.37,-2.90,0.27,0.42,-0.72,0.00
39.914,-0.06,0.23,0.55,-0.46,-0.37,-2.90,0.85,0.10,0.52,0.00
39.916,-0.06,0.23,0.55,1.06,-0.24,-4.49,0.85,0.10,0.52,0.00
39.962,0.00,0.31,0.60,1.06,-0.24,-4.49,0.85,0.10,0.52,0.00
39.988,0.00,0.31,0.60,1.06,-0.24,-4.49,1.21,-0.25,1.66,0.00
39.99,0.00,0.31,0.60,0.64,-0.48,-2.47,1.21,-0.25,1.66,0.00
40.021,0.02,0.28,0.96,0.64,-0.48,-2.47,1.21,-0.25,1.66,0.00
40.067,0.02,0.28,0.96,0.64,-0.48,-2.47,-0.37,-0.26,1.15,0.00
40.069,0.02,0.28,0.96,0.23,-0.64,1.42,-0.37,-0.26,1.15,0.00
40.087,0.20,0.28,1.50,0.23,-0.64,1.42,-0.37,-0.26,1.15,0.00
40.112,0.20,0.28,1.50,0.23,-0.64,1.42,-1.39,-0.48,2.07,0.00
40.114,0.20,0.28,1.50,1.95,-0.08,7.49,-1.39,-0.48,2.07,0.00
40.165,0.19,0.23,1.46,1.95,-0.08,7.49,-1.39,-0.48,2.07,0.00
40.181,0.19,0.23,1.46,1.95,-0.08,7.49,-0.85,-0.22,1.54,0.00
40.185,0.19,0.23,1.46,1.15,0.06,3.94,-0.85,-0.22,1.54,0.00
40.219,0.14,0.22,1.34,1.15,0.06,3.94,-0.85,-0.22,1.54,0.00
40.265,0.14,0.22,1.34,1.15,0.06,3.94,-0.32,-0.02,0.83,0.00
40.267,0.14,0.22,1.34,0.02,0.18,3.37,-0.32,-0.02,0.83,0.00
40.285,0.13,0.19,1.18,0.02,0.18,3.37,-0.32,-0.02,0.83,0.00
40.309,0.13,0.19,1.18,0.02,0.18,3.37,-0.15,0.06,0.37,0.00
40.312,0.13,0.19,1.18,0.15,0.40,0.05,-0.15,0.06,0.37,0.00
40.357,0.08,0.24,0.61,0.15,0.40,0.05,-0.15,0.06,0.37,0.00
40.375,0.08,0.24,0.61,0.15,0.40,0.05,0.90,-0.05,0.17,0.00
40.376,0.08,0.24,0.61,-0.42,0.44,-4.73,0.90,-0.05,0.17,0.00
40.417,-0.01,0.24,0.35,-0.42,0.44,-4.73,0.90,-0.05,0.17,0.00
40.454,-0.01,0.24,0.35,-0.42,0.44,-4.73,1.60,0.01,-0.59,0.00
40.456,-0.01,0.24,0.35,-1.81,-0.68,-6.31,1.60,0.01,-0.59,0.00
40.483,-0.15,0.29,0.43,-1.81,-0.68,-6.31,1.60,0.01,-0.59,0.00
40.507,-0.15,0.29,0.43,-1.81,-0.68,-6.31,1.52,1.11,-3.38,0.00
40.508,-0.15,0.29,0.43,-1.73,-1.14,-1.85,1.52,1.11,-3.38,0.00
40.562,-0.21,0.24,1.59,-1.73,-1.14,-1.85,1.52,1.11,-3.38,0.00
40.576,-0.21,0.24,1.59,-1.73,-1.14,-1.85,-2.64,0.45,-1.31,0.00
40.58,-0.21,0.24,1.59,-0.85,-1.07,8.27,-2.64,0.45,-1.31,0.00
40.615,-0.27,0.16,1.73,-0.85,-1.07,8.27,-2.64,0.45,-1.31,0.00
40.643,-0.27,0.16,1.73,-0.85,-1.07,8.27,-1.85,0.24,-0.10,0.00
40.644,-0.27,0.16,1.73,-1.24,0.03,7.41,-1.85,0.24,-0.10,0.00
40.681,-0.13,0.15,1.22,-1.24,0.03,7.41,-1.85,0.24,-0.10,0.00
40.706,-0.13,0.15,1.22,-1.24,0.03,7.41,-0.65,0.04,1.70,0.00
40.708,-0.13,0.15,1.22,0.37,0.04,0.42,-0.65,0.04,1.70,0.00
40.747,-0.02,0.12,0.81,0.37,0.04,0.42,-0.65,0.04,1.70,0.00
40.8,-0.02,0.12,0.81,0.37,0.04,0.42,-0.37,-0.11,2.94,0.00
40.803,-0.02,0.12,0.81,1.09,0.02,-2.64,-0.37,-0.11,2.94,0.00
40.83,0.05,0.20,0.52,1.09,0.02,-2.64,-0.37,-0.11,2.94,0.00
40.847,0.05,0.20,0.52,1.09,0.02,-2.64,0.43,-0.34,3.55,0.00
40.849,0.05,0.20,0.52,0.63,0.54,-4.48,0.43,-0.34,3.55,0.00
40.882,-0.02,0.26,0.79,0.63,0.54,-4.48,0.43,-0.34,3.55,0.00
40.907,-0.02,0.26,0.79,0.63,0.54,-4.48,1.03,-0.01,1.58,0.00
40.91,-0.02,0.26,0.79,-0.12,0.41,-0.45,1.03,-0.01,1.58,0.00
40.945,0.04,0.35,1.11,-0.12,0.41,-0.45,1.03,-0.01,1.58,0.00
40.971,0.04,0.35,1.11,-0.12,0.41,-0.45,0.51,-0.05,1.47,0.00
40.974,0.04,0.35,1.11,0.72,0.58,2.57,0.51,-0.05,1.47,0.00
41.043,0.02,0.34,1.16,0.72,0.58,2.57,0.51,-0.05,1.47,0.00
41.046,0.02,0.34,1.16,0.72,0.58,2.57,0.05,0.15,1.28,0.00
41.048,0.02,0.34,1.16,-0.53,0.57,0.99,0.05,0.15,1.28,0.00
41.08,-0.03,0.35,0.87,-0.53,0.57,0.99,0.05,0.15,1.28,0.00
41.105,-0.03,0.35,0.87,-0.53,0.57,0.99,0.38,0.38,0.26,0.00
41.107,-0.03,0.35,0.87,-0.29,0.47,-0.81,0.38,0.38,0.26,0.00
41.143,-0.02,0.30,0.80,-0.29,0.47,-0.81,0.38,0.38,0.26,0.00
41.181,-0.02,0.30,0.80,-0.29,0.47,-0.81,0.28,0.32,0.53,0.00
41.184,-0.02,0.30,0.80,-0.06,-0.92,0.31,0.28,0.32,0.53,0.00
41.209,0.00,0.13,1.37,-0.06,-0.92,0.31,0.28,0.32,0.53,0.00
41.236,0.00,0.13,1.37,-0.06,-0.92,0.31,-1.81,0.70,3.27,0.00
41.237,0.00,0.13,1.37,0.67,-1.46,5.03,-1.81,0.70,3.27,0.00
41.28,0.14,0.11,1.16,0.67,-1.46,5.03,-1.81,0.70,3.27,0.00
41.304,0.14,0.11,1.16,0.67,-1.46,5.03,-0.99,-0.23,3.16,0.00
41.309,0.14,0.11,1.16,1.28,-0.23,0.33,-0.99,-0.23,3.16,0.00
41.341,0.21,0.15,0.95,1.28,-0.23,0.33,-0.99,-0.23,3.16,0.00
41.387,0.21,0.15,0.95,1.28,-0.23,0.33,-0.01,-0.72,1.84,0.00
41.389,0.21,0.15,0.95,0.60,-0.01,-0.55,-0.01,-0.72,1.84,0.00
41.408,0.11,0.13,0.88,0.60,-0.01,-0.55,-0.01,-0.72,1.84,0.00
41.435,0.11,0.13,0.88,0.60,-0.01,-0.55,0.14,-0.11,1.13,0.00
41.437,0.11,0.13,0.88,-0.51,0.01,-1.33,0.14,-0.11,1.13,0.00
41.486,0.06,0.21,0.69,-0.51,0.01,-1.33,0.14,-0.11,1.13,0.00
41.503,0.06,0.21,0.69,-0.51,0.01,-1.33,0.75,0.21,-0.34,0.00
41.506,0.06,0.21,0.69,-0.85,0.53,-3.39,0.75,0.21,-0.34,0.00
41.539,-0.00,0.28,0.67,-0.85,0.53,-3.39,0.75,0.21,-0.34,0.00
41.577,-0.00,0.28,0.67,-0.85,0.53,-3.39,1.22,0.38,-1.42,0.00
41.579,-0.00,0.28,0.67,-0.68,0.13,-2.86,1.22,0.38,-1.42,0.00
41.605,0.02,0.29,0.75,-0.68,0.13,-2.86,1.22,0.38,-1.42,0.00
41.633,0.02,0.29,0.75,-0.68,0.13,-2.86,0.71,0.30,-0.66,0.00
41.635,0.02,0.29,0.75,-0.27,-0.62,-0.14,0.71,0.30,-0.66,0.00
41.671,-0.05,0.21,1.24,-0.27,-0.62,-0.14,0.71,0.30,-0.66,0.00
